date,accx,accy,accz
12/9/2020 1:17:53.592000000 PM,0.07251,0.008789,1.00708
12/9/2020 1:17:54.592000000 PM,0.072266,0.010498,0.999023
12/9/2020 1:17:55.592000000 PM,0.071045,0.008057,1.000244
12/9/2020 1:17:56.592000000 PM,0.072266,0.01123,1.00415
12/9/2020 1:17:57.592000000 PM,0.072266,0.009033,1.001465
12/9/2020 1:17:58.592000000 PM,0.069824,0.010986,0.998535
12/9/2020 1:17:59.592000000 PM,0.073975,0.009033,1.001709
12/9/2020 1:18:00.592000000 PM,0.071289,0.01001,0.994873
12/9/2020 1:18:01.592000000 PM,0.071045,0.009277,1
12/9/2020 1:18:02.592000000 PM,0.07251,0.012207,0.997559
12/9/2020 1:18:03.592000000 PM,0.069824,0.008545,1.000244
12/9/2020 1:18:04.592000000 PM,0.071045,0.006104,1.001709
12/9/2020 1:18:05.592000000 PM,0.072021,0.009521,0.99292
12/9/2020 1:18:06.592000000 PM,0.070801,0.010498,0.997559
12/9/2020 1:18:07.592000000 PM,0.066406,0.009521,0.999268
12/9/2020 1:18:08.592000000 PM,0.065186,0.008545,1.004395
12/9/2020 1:18:09.592000000 PM,0.072021,0.012207,0.998779
12/9/2020 1:18:10.592000000 PM,0.073486,0.006592,1.010498
12/9/2020 1:18:11.592000000 PM,0.068115,0.009277,1.000732
12/9/2020 1:18:12.592000000 PM,0.070312,0.010498,1.002441
12/9/2020 1:18:13.592000000 PM,0.072266,0.012207,0.99585
12/9/2020 1:18:14.592000000 PM,0.068848,0.010254,1.000732
12/9/2020 1:18:15.592000000 PM,0.071045,0.009277,1.004395
12/9/2020 1:18:16.592000000 PM,0.067139,0.011719,1.001953
12/9/2020 1:18:17.592000000 PM,0.068115,0.012695,1.002441
12/9/2020 1:18:18.592000000 PM,0.070557,0.010742,1.005127
12/9/2020 1:18:19.592000000 PM,0.071777,0.010254,1.004639
12/9/2020 1:18:20.592000000 PM,0.067383,0.012695,1.00415
12/9/2020 1:18:21.592000000 PM,0.073975,0.013428,1.009277
12/9/2020 1:18:22.592000000 PM,0.064453,0.011719,1.002197
12/9/2020 1:18:23.592000000 PM,0.066895,0.011719,0.999756
12/9/2020 1:18:24.592000000 PM,0.071533,0.011963,0.998047
12/9/2020 1:18:25.592000000 PM,0.073975,0.008789,0.997314
12/9/2020 1:18:26.592000000 PM,0.069092,0.016113,0.999512
12/9/2020 1:18:27.592000000 PM,0.068115,0.010254,0.997559
12/9/2020 1:18:28.592000000 PM,0.068359,0.011719,1.005127
12/9/2020 1:18:29.592000000 PM,0.074219,0.008057,1.001221
12/9/2020 1:18:30.592000000 PM,0.069824,0.010742,1.003174
12/9/2020 1:18:31.592000000 PM,0.070801,0.010254,0.998291
12/9/2020 1:18:32.592000000 PM,0.068604,0.006104,1.001953
12/9/2020 1:18:33.592000000 PM,0.070068,0.012451,0.996338
12/9/2020 1:18:34.592000000 PM,0.072754,0.011719,1.000732
12/9/2020 1:18:35.592000000 PM,0.071045,0.010986,1.003174
12/9/2020 1:18:36.592000000 PM,0.071533,0.009033,1.003906
12/9/2020 1:18:37.592000000 PM,0.072998,0.010742,1.006592
12/9/2020 1:18:38.592000000 PM,0.071045,0.010254,1.001709
12/9/2020 1:18:39.592000000 PM,0.071045,0.009521,1.002441
12/9/2020 1:18:40.592000000 PM,0.06958,0.004639,1.005859
12/9/2020 1:18:41.592000000 PM,0.07373,0.012207,1.00415
12/9/2020 1:18:42.592000000 PM,0.071533,0.011963,1.006592
12/9/2020 1:20:13.765000000 PM,0.071289,0.008301,1.001709
12/9/2020 1:20:13.774000000 PM,0.072021,0.007568,1.001465
12/9/2020 1:20:13.784000000 PM,0.070312,0.01123,0.999268
12/9/2020 1:20:13.794000000 PM,0.071777,0.010742,1.004883
12/9/2020 1:20:13.804000000 PM,0.070557,0.01001,0.998291
12/9/2020 1:20:13.816000000 PM,0.070312,0.012207,1.002441
12/9/2020 1:20:13.824000000 PM,0.069092,0.008057,0.99292
12/9/2020 1:20:13.834000000 PM,0.073486,0.014404,0.997803
12/9/2020 1:20:13.852000000 PM,0.070312,0.010742,1.005615
12/9/2020 1:20:13.879000000 PM,0.070557,0.014893,1.003662
12/9/2020 1:20:13.887000000 PM,0.071533,0.008057,1.001709
12/9/2020 1:20:13.899000000 PM,0.069824,0.010742,0.998291
12/9/2020 1:20:13.911000000 PM,0.068848,0.008057,0.999756
12/9/2020 1:20:13.921000000 PM,0.069824,0.008545,1.004883
12/9/2020 1:20:13.932000000 PM,0.070557,0.008545,0.999512
12/9/2020 1:20:13.943000000 PM,0.070068,0.00708,1.001221
12/9/2020 1:20:13.955000000 PM,0.069824,0.013184,0.995605
12/9/2020 1:20:13.971000000 PM,0.071777,0.008057,0.99707
12/9/2020 1:20:13.978000000 PM,0.066162,0.008301,1.002686
12/9/2020 1:20:13.990000000 PM,0.070801,0.014648,0.999756
12/9/2020 1:20:14.000000000 PM,0.068848,0.00708,0.996826
12/9/2020 1:20:14.018000000 PM,0.070801,0.010986,0.996094
12/9/2020 1:20:14.030000000 PM,0.070312,0.013428,0.994385
12/9/2020 1:20:14.043000000 PM,0.070312,0.011475,0.996338
12/9/2020 1:20:14.054000000 PM,0.068848,0.010742,0.998291
12/9/2020 1:20:14.067000000 PM,0.067139,0.012695,1.006104
12/9/2020 1:20:14.076000000 PM,0.071533,0.01001,1.004883
12/9/2020 1:20:14.086000000 PM,0.07373,0.009766,1.003662
12/9/2020 1:20:14.095000000 PM,0.069092,0.010742,0.999512
12/9/2020 1:20:14.113000000 PM,0.071777,0.01123,0.997314
12/9/2020 1:20:14.120000000 PM,0.07251,0.012451,0.999512
12/9/2020 1:20:14.132000000 PM,0.071045,0.008301,0.996338
12/9/2020 1:20:14.142000000 PM,0.068115,0.013916,0.996582
12/9/2020 1:20:14.154000000 PM,0.071533,0.006592,1.005127
12/9/2020 1:20:14.166000000 PM,0.067627,0.014404,0.999023
12/9/2020 1:20:14.176000000 PM,0.071533,0.008789,0.999756
12/9/2020 1:20:14.189000000 PM,0.070801,0.010498,1.001953
12/9/2020 1:20:14.199000000 PM,0.070801,0.011475,1.001953
12/9/2020 1:20:14.214000000 PM,0.075195,0.009521,0.999023
12/9/2020 1:20:14.222000000 PM,0.06958,0.01001,0.996582
12/9/2020 1:20:14.232000000 PM,0.067871,0.01123,1.003906
12/9/2020 1:20:14.243000000 PM,0.070557,0.009521,0.999268
12/9/2020 1:20:14.250000000 PM,0.069824,0.010498,1.00708
12/9/2020 1:20:14.267000000 PM,0.069336,0.006348,1.003906
12/9/2020 1:20:14.279000000 PM,0.068848,0.008545,1.005127
12/9/2020 1:20:14.295000000 PM,0.070312,0.01123,1.008789
12/9/2020 1:20:14.303000000 PM,0.071045,0.009521,1.003662
12/9/2020 1:20:14.316000000 PM,0.06958,0.008301,1.005615
12/9/2020 1:20:14.326000000 PM,0.071045,0.01123,0.993896
12/9/2020 1:20:14.342000000 PM,0.069336,0.006836,1.011475
12/9/2020 1:20:14.352000000 PM,0.068604,0.010498,1.005615
12/9/2020 1:20:14.361000000 PM,0.07251,0.006104,1.001221
12/9/2020 1:20:14.376000000 PM,0.07251,0.01001,1.001709
12/9/2020 1:20:14.384000000 PM,0.066895,0.009766,0.997559
12/9/2020 1:20:14.395000000 PM,0.073242,0.006348,1.000244
12/9/2020 1:20:14.406000000 PM,0.071045,0.009277,0.999268
12/9/2020 1:20:14.416000000 PM,0.07251,0.009766,1.001953
12/9/2020 1:20:14.427000000 PM,0.067139,0.005859,1.001465
12/9/2020 1:20:14.437000000 PM,0.070068,0.01001,0.997314
12/9/2020 1:20:14.447000000 PM,0.070801,0.011475,1.00415
12/9/2020 1:20:14.458000000 PM,0.069824,0.011475,0.999512
12/9/2020 1:20:14.470000000 PM,0.07251,0.010254,1.002441
12/9/2020 1:20:14.480000000 PM,0.069336,0.011719,1.00415
12/9/2020 1:20:14.490000000 PM,0.07251,0.010498,1.001465
12/9/2020 1:20:14.502000000 PM,0.069336,0.010986,1.003418
12/9/2020 1:20:14.515000000 PM,0.066406,0.01709,1.006348
12/9/2020 1:20:14.525000000 PM,0.06958,0.009277,1.005859
12/9/2020 1:20:14.537000000 PM,0.067139,0.010742,1.000244
12/9/2020 1:20:14.547000000 PM,0.067871,0.009766,1.007568
12/9/2020 1:20:14.560000000 PM,0.065674,0.010498,1.007568
12/9/2020 1:20:14.572000000 PM,0.07373,0.008789,1.005127
12/9/2020 1:20:14.583000000 PM,0.068848,0.010742,0.998291
12/9/2020 1:20:14.593000000 PM,0.070801,0.012695,1.007568
12/9/2020 1:20:14.603000000 PM,0.070557,0.01123,1.001465
12/9/2020 1:20:14.615000000 PM,0.06958,0.015137,0.998535
12/9/2020 1:20:14.625000000 PM,0.073242,0.010742,1.001709
12/9/2020 1:20:14.640000000 PM,0.07251,0.012207,1.005371
12/9/2020 1:20:14.647000000 PM,0.072266,0.010742,1.003906
12/9/2020 1:20:14.661000000 PM,0.068848,0.010254,0.995117
12/9/2020 1:20:14.673000000 PM,0.068359,0.012695,0.996338
12/9/2020 1:20:14.684000000 PM,0.068604,0.009766,1.004639
12/9/2020 1:20:14.694000000 PM,0.068604,0.008057,0.998291
12/9/2020 1:20:14.701000000 PM,0.07666,0.011719,0.998535
12/9/2020 1:20:14.707000000 PM,0.064941,0.007324,1
12/9/2020 1:20:14.714000000 PM,0.070557,0.009277,1.003418
12/9/2020 1:20:14.730000000 PM,0.073486,0.009521,1.001465
12/9/2020 1:20:14.740000000 PM,0.068604,0.012695,1
12/9/2020 1:20:14.766000000 PM,0.070312,0.011719,0.995117
12/9/2020 1:20:14.774000000 PM,0.067139,0.01416,0.997314
12/9/2020 1:20:14.786000000 PM,0.070068,0.013916,1.001465
12/9/2020 1:20:14.796000000 PM,0.070801,0.010498,0.997559
12/9/2020 1:20:14.807000000 PM,0.068848,0.012695,0.998779
12/9/2020 1:20:14.819000000 PM,0.068115,0.013184,1.002197
12/9/2020 1:20:14.830000000 PM,0.068115,0.01001,0.995117
12/9/2020 1:20:14.842000000 PM,0.069336,0.012939,1.005859
12/9/2020 1:20:14.852000000 PM,0.071777,0.013916,0.99707
12/9/2020 1:20:14.864000000 PM,0.068359,0.010498,1.004395
12/9/2020 1:20:14.873000000 PM,0.06958,0.009521,1.004639
12/9/2020 1:20:14.883000000 PM,0.072021,0.01123,0.999268
12/9/2020 1:20:14.893000000 PM,0.071289,0.009766,0.998047
12/9/2020 1:20:14.908000000 PM,0.071045,0.011719,0.997559
12/9/2020 1:20:14.916000000 PM,0.070557,0.013916,1.000244
12/9/2020 1:20:14.929000000 PM,0.066162,0.012451,1
12/9/2020 1:20:14.939000000 PM,0.071045,0.010742,0.998779
12/9/2020 1:20:14.954000000 PM,0.073242,0.011475,0.997559
12/9/2020 1:20:14.962000000 PM,0.070801,0.01416,0.998291
12/9/2020 1:20:14.973000000 PM,0.070068,0.00708,1.000244
12/9/2020 1:20:14.988000000 PM,0.072998,0.008057,1.005371
12/9/2020 1:20:14.996000000 PM,0.071777,0.010498,1.003662
12/9/2020 1:20:15.006000000 PM,0.072266,0.008545,0.999023
12/9/2020 1:20:15.022000000 PM,0.069092,0.012207,1.00293
12/9/2020 1:20:15.030000000 PM,0.070312,0.012939,1.000488
12/9/2020 1:20:15.041000000 PM,0.072754,0.011963,1.005859
12/9/2020 1:20:15.051000000 PM,0.07251,0.015381,1.000977
12/9/2020 1:20:15.068000000 PM,0.069336,0.011475,1.003662
12/9/2020 1:20:15.076000000 PM,0.074219,0.007812,1.000244
12/9/2020 1:20:15.087000000 PM,0.069336,0.012451,1.001221
12/9/2020 1:20:15.097000000 PM,0.070557,0.010498,1.004395
12/9/2020 1:20:15.107000000 PM,0.068115,0.012695,1.000732
12/9/2020 1:20:15.117000000 PM,0.066162,0.009766,0.996826
12/9/2020 1:20:15.129000000 PM,0.068604,0.010498,0.997803
12/9/2020 1:20:15.139000000 PM,0.069092,0.014404,1.001221
12/9/2020 1:20:15.149000000 PM,0.068848,0.012207,1.003418
12/9/2020 1:20:15.159000000 PM,0.070557,0.011963,0.99585
12/9/2020 1:20:15.171000000 PM,0.068604,0.01001,0.999512
12/9/2020 1:20:15.180000000 PM,0.069092,0.009521,0.995361
12/9/2020 1:20:15.190000000 PM,0.06958,0.011719,0.999756
12/9/2020 1:20:15.200000000 PM,0.070312,0.009033,1.000977
12/9/2020 1:20:15.206000000 PM,0.067871,0.012207,1.000732
12/9/2020 1:20:15.223000000 PM,0.072021,0.010254,1.003662
12/9/2020 1:20:15.231000000 PM,0.068604,0.009766,1.001709
12/9/2020 1:20:15.241000000 PM,0.070801,0.00708,0.99585
12/9/2020 1:20:15.254000000 PM,0.074707,0.010498,1.007324
12/9/2020 1:20:15.266000000 PM,0.068359,0.009766,1.003906
12/9/2020 1:20:15.279000000 PM,0.072754,0.009766,0.999756
12/9/2020 1:20:15.289000000 PM,0.070312,0.011963,1.007568
12/9/2020 1:20:15.299000000 PM,0.075928,0.01123,1.008057
12/9/2020 1:20:15.311000000 PM,0.075439,0.012207,1.002441
12/9/2020 1:20:15.321000000 PM,0.071533,0.01416,1.001709
12/9/2020 1:20:15.332000000 PM,0.072266,0.010254,1.007324
12/9/2020 1:20:15.342000000 PM,0.072266,0.007812,1.003662
12/9/2020 1:20:15.354000000 PM,0.068848,0.010742,1.003418
12/9/2020 1:20:15.364000000 PM,0.074463,0.010254,1.00415
12/9/2020 1:20:15.374000000 PM,0.068115,0.008057,1.000244
12/9/2020 1:20:15.384000000 PM,0.074463,0.010498,1.008057
12/9/2020 1:20:15.394000000 PM,0.072021,0.010498,1.007324
12/9/2020 1:20:15.403000000 PM,0.069336,0.011963,0.997559
12/9/2020 1:20:15.419000000 PM,0.071289,0.009766,1
12/9/2020 1:20:15.426000000 PM,0.069336,0.01001,1.001221
12/9/2020 1:20:15.443000000 PM,0.071289,0.008789,1.007324
12/9/2020 1:20:15.450000000 PM,0.069336,0.01001,0.998047
12/9/2020 1:20:15.462000000 PM,0.069824,0.015869,1.005127
12/9/2020 1:20:15.472000000 PM,0.070801,0.009521,0.995361
12/9/2020 1:20:15.489000000 PM,0.07251,0.01123,1.001709
12/9/2020 1:20:15.496000000 PM,0.068115,0.013916,1.00293
12/9/2020 1:20:15.513000000 PM,0.072266,0.009277,0.996582
12/9/2020 1:20:15.520000000 PM,0.071777,0.00708,1.004395
12/9/2020 1:20:15.526000000 PM,0.068604,0.010254,0.999756
12/9/2020 1:20:15.534000000 PM,0.070801,0.010742,0.99585
12/9/2020 1:20:15.544000000 PM,0.070312,0.010986,0.996094
12/9/2020 1:20:15.554000000 PM,0.070068,0.009521,0.99707
12/9/2020 1:20:15.565000000 PM,0.074219,0.007324,1.006592
12/9/2020 1:20:15.593000000 PM,0.072021,0.009033,1.005371
12/9/2020 1:20:15.601000000 PM,0.06958,0.00708,1.00293
12/9/2020 1:20:15.613000000 PM,0.069824,0.010254,1.006348
12/9/2020 1:20:15.625000000 PM,0.07251,0.010254,1.004395
12/9/2020 1:20:15.634000000 PM,0.070557,0.012207,1.001221
12/9/2020 1:20:15.645000000 PM,0.070312,0.012207,0.999512
12/9/2020 1:20:15.656000000 PM,0.070068,0.011963,1.00415
12/9/2020 1:20:15.668000000 PM,0.07251,0.012695,1.000244
12/9/2020 1:20:15.678000000 PM,0.069336,0.009766,1.000732
12/9/2020 1:20:15.687000000 PM,0.071045,0.009033,1.008057
12/9/2020 1:20:15.706000000 PM,0.068848,0.013428,1.009766
12/9/2020 1:20:15.714000000 PM,0.067871,0.012451,0.99707
12/9/2020 1:20:15.724000000 PM,0.068848,0.012451,1.000732
12/9/2020 1:20:15.739000000 PM,0.068115,0.010986,0.997314
12/9/2020 1:20:15.747000000 PM,0.071777,0.007568,0.995361
12/9/2020 1:20:15.759000000 PM,0.069336,0.016846,1.002197
12/9/2020 1:20:15.767000000 PM,0.069824,0.010986,1.002686
12/9/2020 1:20:15.774000000 PM,0.074463,0.01123,1.006104
12/9/2020 1:20:15.784000000 PM,0.07373,0.007812,1.000977
12/9/2020 1:20:15.794000000 PM,0.068604,0.014648,1.00293
12/9/2020 1:20:15.804000000 PM,0.069092,0.009766,1.001953
12/9/2020 1:20:15.818000000 PM,0.070801,0.009766,1.001953
12/9/2020 1:20:15.826000000 PM,0.068604,0.013672,1.003418
12/9/2020 1:20:15.853000000 PM,0.071289,0.012939,1.000977
12/9/2020 1:20:15.861000000 PM,0.072021,0.009033,1.001709
12/9/2020 1:20:15.873000000 PM,0.06958,0.009766,1.001465
12/9/2020 1:20:15.883000000 PM,0.073975,0.008545,0.999023
12/9/2020 1:20:15.898000000 PM,0.067871,0.011963,1.000977
12/9/2020 1:20:15.906000000 PM,0.067627,0.012207,0.998779
12/9/2020 1:20:15.918000000 PM,0.067871,0.009521,0.999512
12/9/2020 1:20:15.928000000 PM,0.067871,0.012207,1.003906
12/9/2020 1:20:15.944000000 PM,0.068604,0.012939,1.003174
12/9/2020 1:20:15.951000000 PM,0.068604,0.011963,1.002197
12/9/2020 1:20:15.962000000 PM,0.068848,0.009766,1.003174
12/9/2020 1:20:15.972000000 PM,0.06958,0.008057,1.006592
12/9/2020 1:20:15.983000000 PM,0.070557,0.013916,1.001953
12/9/2020 1:20:15.994000000 PM,0.070557,0.00708,1.000488
12/9/2020 1:20:16.008000000 PM,0.073486,0.009277,1.002686
12/9/2020 1:20:16.019000000 PM,0.06958,0.013672,0.99585
12/9/2020 1:20:16.025000000 PM,0.071289,0.011963,1.00708
12/9/2020 1:20:16.034000000 PM,0.072021,0.013184,1.002197
12/9/2020 1:20:16.044000000 PM,0.06958,0.010254,0.998047
12/9/2020 1:20:16.056000000 PM,0.067871,0.012207,1.00708
12/9/2020 1:20:16.068000000 PM,0.068115,0.011475,0.99707
12/9/2020 1:20:16.095000000 PM,0.068359,0.011963,1.004639
12/9/2020 1:20:16.102000000 PM,0.073242,0.01001,0.99707
12/9/2020 1:20:16.113000000 PM,0.069824,0.01123,0.998535
12/9/2020 1:20:16.123000000 PM,0.067139,0.009277,1.003418
12/9/2020 1:20:16.132000000 PM,0.069336,0.010498,0.998535
12/9/2020 1:20:16.148000000 PM,0.071289,0.010986,1.005127
12/9/2020 1:20:16.156000000 PM,0.06958,0.01123,1.006592
12/9/2020 1:20:16.166000000 PM,0.070801,0.005859,0.996826
12/9/2020 1:20:16.175000000 PM,0.071777,0.011475,1.008301
12/9/2020 1:20:16.190000000 PM,0.071289,0.008057,1.007324
12/9/2020 1:20:16.198000000 PM,0.06665,0.013672,1.001709
12/9/2020 1:20:16.209000000 PM,0.068359,0.009277,0.998779
12/9/2020 1:20:16.219000000 PM,0.070312,0.011475,1.001465
12/9/2020 1:20:16.231000000 PM,0.070068,0.010498,1.000488
12/9/2020 1:20:16.243000000 PM,0.074463,0.011963,1.003174
12/9/2020 1:20:16.259000000 PM,0.071533,0.012939,1.005127
12/9/2020 1:20:16.267000000 PM,0.07251,0.009766,1.003174
12/9/2020 1:20:16.277000000 PM,0.071045,0.009277,0.999756
12/9/2020 1:20:16.289000000 PM,0.069336,0.011475,1
12/9/2020 1:20:16.296000000 PM,0.065674,0.008545,0.993652
12/9/2020 1:20:16.317000000 PM,0.067383,0.010986,0.994629
12/9/2020 1:20:16.325000000 PM,0.070557,0.006836,1.00293
12/9/2020 1:20:16.335000000 PM,0.070557,0.008057,1.00708
12/9/2020 1:20:16.345000000 PM,0.067871,0.01001,1.001465
12/9/2020 1:20:16.355000000 PM,0.071289,0.014893,1.003418
12/9/2020 1:20:16.366000000 PM,0.069824,0.012451,1.005371
12/9/2020 1:20:16.375000000 PM,0.073242,0.012451,0.996338
12/9/2020 1:20:16.386000000 PM,0.070557,0.01001,0.999268
12/9/2020 1:20:16.395000000 PM,0.070801,0.009521,1.005371
12/9/2020 1:20:16.408000000 PM,0.073242,0.013184,1.00293
12/9/2020 1:20:16.418000000 PM,0.073975,0.013672,1.006348
12/9/2020 1:20:16.427000000 PM,0.070312,0.009277,1.006592
12/9/2020 1:20:16.437000000 PM,0.06665,0.010742,1.000977
12/9/2020 1:20:16.444000000 PM,0.068115,0.010254,1.003174
12/9/2020 1:20:16.465000000 PM,0.072021,0.012207,1.001709
12/9/2020 1:20:16.473000000 PM,0.072754,0.008545,1.005127
12/9/2020 1:20:16.483000000 PM,0.067139,0.010254,1.002197
12/9/2020 1:20:16.494000000 PM,0.075195,0.006592,1.002686
12/9/2020 1:20:16.507000000 PM,0.070312,0.010742,0.996582
12/9/2020 1:20:16.519000000 PM,0.069092,0.00708,1
12/9/2020 1:20:16.529000000 PM,0.071045,0.007812,1.005127
12/9/2020 1:20:16.538000000 PM,0.070312,0.010498,0.998779
12/9/2020 1:20:16.554000000 PM,0.071777,0.015381,1.000244
12/9/2020 1:20:16.562000000 PM,0.06958,0.014648,1.003174
12/9/2020 1:20:16.572000000 PM,0.067627,0.009766,1.002686
12/9/2020 1:20:16.582000000 PM,0.068848,0.011963,1
12/9/2020 1:20:16.592000000 PM,0.068604,0.010986,1.00293
12/9/2020 1:20:16.602000000 PM,0.072754,0.007812,1.005371
12/9/2020 1:20:16.609000000 PM,0.07251,0.010498,1.002441
12/9/2020 1:20:16.615000000 PM,0.070068,0.010498,1.001221
12/9/2020 1:20:16.633000000 PM,0.071289,0.009521,1.000732
12/9/2020 1:20:16.640000000 PM,0.06958,0.011719,1.00708
12/9/2020 1:20:16.660000000 PM,0.067383,0.013672,1.001221
12/9/2020 1:20:16.668000000 PM,0.067627,0.008057,0.999512
12/9/2020 1:20:16.679000000 PM,0.068604,0.01123,0.999023
12/9/2020 1:20:16.691000000 PM,0.073486,0.012939,0.999023
12/9/2020 1:20:16.701000000 PM,0.070557,0.009766,1.004883
12/9/2020 1:20:16.709000000 PM,0.072266,0.010254,1.004883
12/9/2020 1:20:16.728000000 PM,0.068359,0.010254,1.009033
12/9/2020 1:20:16.736000000 PM,0.071533,0.013428,1.001465
12/9/2020 1:20:16.746000000 PM,0.068359,0.012207,1.00415
12/9/2020 1:20:16.756000000 PM,0.06958,0.009766,1.005371
12/9/2020 1:20:16.765000000 PM,0.068115,0.008301,0.999512
12/9/2020 1:20:16.776000000 PM,0.067139,0.008545,1.004395
12/9/2020 1:20:16.787000000 PM,0.071289,0.008545,1.003662
12/9/2020 1:20:16.797000000 PM,0.067627,0.008057,0.998291
12/9/2020 1:20:16.807000000 PM,0.071777,0.011475,0.999023
12/9/2020 1:20:16.819000000 PM,0.070801,0.010986,1.004883
12/9/2020 1:20:16.834000000 PM,0.072998,0.010498,1.00293
12/9/2020 1:20:16.842000000 PM,0.07251,0.01123,0.998291
12/9/2020 1:20:16.854000000 PM,0.071045,0.011475,0.99707
12/9/2020 1:20:16.862000000 PM,0.067871,0.008789,0.999023
12/9/2020 1:20:16.873000000 PM,0.069824,0.007812,0.999512
12/9/2020 1:20:16.886000000 PM,0.06958,0.011963,1.005859
12/9/2020 1:20:16.897000000 PM,0.067383,0.009277,0.998047
12/9/2020 1:20:16.906000000 PM,0.069824,0.008545,1.000488
12/9/2020 1:20:16.919000000 PM,0.068359,0.010498,1.003906
12/9/2020 1:20:16.929000000 PM,0.072998,0.01123,1.004639
12/9/2020 1:20:16.944000000 PM,0.074219,0.011963,1.013428
12/9/2020 1:20:16.952000000 PM,0.07373,0.011719,0.987549
12/9/2020 1:20:16.961000000 PM,0.06958,0.010986,1.000244
12/9/2020 1:20:16.976000000 PM,0.073242,0.010254,1.004639
12/9/2020 1:20:16.984000000 PM,0.067871,0.01123,0.999512
12/9/2020 1:20:16.999000000 PM,0.071533,0.013184,1.001709
12/9/2020 1:20:17.015000000 PM,0.070801,0.008057,0.999512
12/9/2020 1:20:17.021000000 PM,0.071289,0.009521,1.000488
12/9/2020 1:20:17.027000000 PM,0.067627,0.013184,0.995605
12/9/2020 1:20:17.034000000 PM,0.068359,0.009766,1.001465
12/9/2020 1:20:17.044000000 PM,0.069824,0.016113,1.003906
12/9/2020 1:20:17.054000000 PM,0.07373,0.008057,1.001953
12/9/2020 1:20:17.066000000 PM,0.070312,0.009033,1.005371
12/9/2020 1:20:17.077000000 PM,0.066895,0.012451,1.00293
12/9/2020 1:20:17.103000000 PM,0.072754,0.01001,1.007812
12/9/2020 1:20:17.111000000 PM,0.069336,0.011475,0.991455
12/9/2020 1:20:17.127000000 PM,0.07251,0.013916,1
12/9/2020 1:20:17.135000000 PM,0.068359,0.01123,0.994385
12/9/2020 1:20:17.150000000 PM,0.071045,0.009277,1.000488
12/9/2020 1:20:17.157000000 PM,0.07251,0.012939,0.999268
12/9/2020 1:20:17.174000000 PM,0.07251,0.013184,1.003662
12/9/2020 1:20:17.182000000 PM,0.071533,0.009277,1.004639
12/9/2020 1:20:17.191000000 PM,0.071045,0.01123,1.000977
12/9/2020 1:20:17.202000000 PM,0.071533,0.013916,0.996094
12/9/2020 1:20:17.212000000 PM,0.071777,0.008789,1.000244
12/9/2020 1:20:17.222000000 PM,0.069092,0.011475,0.997559
12/9/2020 1:20:17.234000000 PM,0.069336,0.009277,0.993408
12/9/2020 1:20:17.244000000 PM,0.07251,0.010498,1.005615
12/9/2020 1:20:17.255000000 PM,0.074219,0.010498,0.999268
12/9/2020 1:20:17.265000000 PM,0.072021,0.012695,1.001953
12/9/2020 1:20:17.278000000 PM,0.070068,0.008545,0.999023
12/9/2020 1:20:17.287000000 PM,0.068848,0.01123,0.999512
12/9/2020 1:20:17.302000000 PM,0.065918,0.01416,1.000244
12/9/2020 1:20:17.310000000 PM,0.070801,0.010254,1.003906
12/9/2020 1:20:17.321000000 PM,0.071289,0.004883,1
12/9/2020 1:20:17.333000000 PM,0.067871,0.01123,0.996582
12/9/2020 1:20:17.342000000 PM,0.06958,0.010498,1.00293
12/9/2020 1:20:17.357000000 PM,0.06958,0.009521,1.002441
12/9/2020 1:20:17.365000000 PM,0.06665,0.010986,1.001953
12/9/2020 1:20:17.375000000 PM,0.07373,0.011719,1
12/9/2020 1:20:17.386000000 PM,0.070801,0.010986,0.994141
12/9/2020 1:20:17.399000000 PM,0.068604,0.012451,1.003174
12/9/2020 1:20:17.408000000 PM,0.073242,0.007324,0.997559
12/9/2020 1:20:17.424000000 PM,0.072021,0.01001,1.002686
12/9/2020 1:20:17.432000000 PM,0.070557,0.014893,1.000732
12/9/2020 1:20:17.442000000 PM,0.065918,0.01416,1.000244
12/9/2020 1:20:17.452000000 PM,0.070557,0.009521,0.993408
12/9/2020 1:20:17.462000000 PM,0.071289,0.012695,0.999023
12/9/2020 1:20:17.472000000 PM,0.073975,0.010986,0.994385
12/9/2020 1:20:17.483000000 PM,0.072266,0.01123,0.999512
12/9/2020 1:20:17.493000000 PM,0.070312,0.007324,1.002441
12/9/2020 1:20:17.505000000 PM,0.066162,0.007812,0.996582
12/9/2020 1:20:17.516000000 PM,0.072021,0.01416,0.998047
12/9/2020 1:20:17.526000000 PM,0.071045,0.009521,1.010254
12/9/2020 1:20:17.536000000 PM,0.068604,0.009033,0.998535
12/9/2020 1:20:17.546000000 PM,0.06665,0.010254,1.006348
12/9/2020 1:20:17.556000000 PM,0.075928,0.009521,1.006104
12/9/2020 1:20:17.566000000 PM,0.06958,0.010254,1.00708
12/9/2020 1:20:17.582000000 PM,0.069092,0.013428,1.007568
12/9/2020 1:20:17.590000000 PM,0.073975,0.01123,1.002686
12/9/2020 1:20:17.600000000 PM,0.06958,0.013428,1.005615
12/9/2020 1:20:17.612000000 PM,0.071045,0.013184,0.999268
12/9/2020 1:20:17.628000000 PM,0.070557,0.014893,1.00415
12/9/2020 1:20:17.636000000 PM,0.070312,0.01001,0.998535
12/9/2020 1:20:17.647000000 PM,0.068604,0.012207,0.999512
12/9/2020 1:20:17.659000000 PM,0.068115,0.006348,1.00415
12/9/2020 1:20:17.669000000 PM,0.069336,0.010742,1.005859
12/9/2020 1:20:17.680000000 PM,0.073242,0.013428,0.996338
12/9/2020 1:20:17.692000000 PM,0.069092,0.009033,1
12/9/2020 1:20:17.702000000 PM,0.071777,0.006836,0.995117
12/9/2020 1:20:17.711000000 PM,0.071045,0.008301,1.00293
12/9/2020 1:20:17.723000000 PM,0.065918,0.01123,1.006836
12/9/2020 1:20:17.737000000 PM,0.069092,0.012207,1.00708
12/9/2020 1:20:17.748000000 PM,0.071777,0.008057,1.001709
12/9/2020 1:20:17.769000000 PM,0.066406,0.01001,1.001221
12/9/2020 1:20:17.778000000 PM,0.071777,0.009033,1.007324
12/9/2020 1:20:17.787000000 PM,0.071289,0.010498,1.003906
12/9/2020 1:20:17.798000000 PM,0.069824,0.011475,0.998047
12/9/2020 1:20:17.809000000 PM,0.06543,0.009521,0.994873
12/9/2020 1:20:17.819000000 PM,0.073486,0.011475,1.003906
12/9/2020 1:20:17.830000000 PM,0.068604,0.008057,1.003662
12/9/2020 1:20:17.845000000 PM,0.069824,0.008545,0.999268
12/9/2020 1:20:17.853000000 PM,0.071289,0.008545,0.997314
12/9/2020 1:20:17.863000000 PM,0.067383,0.01001,0.999512
12/9/2020 1:20:17.879000000 PM,0.068359,0.012695,1.005371
12/9/2020 1:20:17.886000000 PM,0.069824,0.010254,0.999756
12/9/2020 1:20:17.896000000 PM,0.069336,0.008057,1.003906
12/9/2020 1:20:17.911000000 PM,0.069824,0.012207,1.002441
12/9/2020 1:20:17.919000000 PM,0.070068,0.011963,1.008789
12/9/2020 1:20:17.931000000 PM,0.071045,0.010742,0.997803
12/9/2020 1:20:17.946000000 PM,0.069336,0.009521,1.001709
12/9/2020 1:20:17.955000000 PM,0.069092,0.012451,0.997803
12/9/2020 1:20:17.965000000 PM,0.067871,0.008789,0.999023
12/9/2020 1:20:17.975000000 PM,0.073486,0.005371,1.002686
12/9/2020 1:20:17.984000000 PM,0.068359,0.009766,1.003174
12/9/2020 1:20:18.000000000 PM,0.071777,0.013916,1
12/9/2020 1:20:18.008000000 PM,0.073975,0.010742,0.994141
12/9/2020 1:20:18.019000000 PM,0.068359,0.01001,0.99585
12/9/2020 1:20:18.032000000 PM,0.066162,0.009277,1.001221
12/9/2020 1:20:18.043000000 PM,0.06958,0.010986,1.000977
12/9/2020 1:20:18.054000000 PM,0.070312,0.009033,1.004639
12/9/2020 1:20:18.064000000 PM,0.070068,0.013916,1.001709
12/9/2020 1:20:18.074000000 PM,0.07251,0.013916,1.001465
12/9/2020 1:20:18.084000000 PM,0.070068,0.01123,1.00708
12/9/2020 1:20:18.095000000 PM,0.068115,0.015381,0.996338
12/9/2020 1:20:18.110000000 PM,0.071289,0.012451,1.006592
12/9/2020 1:20:18.117000000 PM,0.073486,0.011963,1.004883
12/9/2020 1:20:18.128000000 PM,0.068848,0.013428,1.002197
12/9/2020 1:20:18.138000000 PM,0.067139,0.008789,1.006592
12/9/2020 1:20:18.154000000 PM,0.070312,0.008301,1.000732
12/9/2020 1:20:18.162000000 PM,0.069824,0.009766,1.003906
12/9/2020 1:20:18.173000000 PM,0.068359,0.009277,1.01001
12/9/2020 1:20:18.183000000 PM,0.072998,0.007568,0.994385
12/9/2020 1:20:18.195000000 PM,0.071777,0.012451,1.001465
12/9/2020 1:20:18.204000000 PM,0.070068,0.009277,0.99707
12/9/2020 1:20:18.216000000 PM,0.069336,0.010254,1.00293
12/9/2020 1:20:18.228000000 PM,0.067383,0.007812,1.000732
12/9/2020 1:20:18.238000000 PM,0.069336,0.012451,0.996582
12/9/2020 1:20:18.251000000 PM,0.07251,0.009521,1.003906
12/9/2020 1:20:18.264000000 PM,0.066162,0.010254,0.992676
12/9/2020 1:20:18.275000000 PM,0.071533,0.010498,0.995117
12/9/2020 1:20:18.281000000 PM,0.067383,0.012207,1.002197
12/9/2020 1:20:18.287000000 PM,0.071289,0.011719,0.999512
12/9/2020 1:20:18.302000000 PM,0.072754,0.007568,0.996094
12/9/2020 1:20:18.312000000 PM,0.069336,0.010986,1.004639
12/9/2020 1:20:18.323000000 PM,0.071777,0.009521,1.005615
12/9/2020 1:20:18.338000000 PM,0.069824,0.016357,1.000977
12/9/2020 1:20:18.346000000 PM,0.071045,0.009766,1.003906
12/9/2020 1:20:18.358000000 PM,0.070557,0.012695,1.001709
12/9/2020 1:20:18.368000000 PM,0.069092,0.011719,1.00293
12/9/2020 1:20:18.380000000 PM,0.069336,0.010498,0.999512
12/9/2020 1:20:18.391000000 PM,0.06958,0.012207,1.005127
12/9/2020 1:20:18.401000000 PM,0.070801,0.012451,1.005371
12/9/2020 1:20:18.411000000 PM,0.072266,0.006592,1.000732
12/9/2020 1:20:18.421000000 PM,0.070801,0.009766,0.997803
12/9/2020 1:20:18.436000000 PM,0.071777,0.012939,0.996338
12/9/2020 1:20:18.443000000 PM,0.074219,0.013428,1.00415
12/9/2020 1:20:18.459000000 PM,0.069824,0.007812,1.005127
12/9/2020 1:20:18.467000000 PM,0.06665,0.010498,1.001465
12/9/2020 1:20:18.479000000 PM,0.071045,0.012451,1.00293
12/9/2020 1:20:18.488000000 PM,0.068604,0.009521,1.001953
12/9/2020 1:20:18.498000000 PM,0.074707,0.010498,1.000488
12/9/2020 1:20:18.515000000 PM,0.068359,0.008545,1.002441
12/9/2020 1:20:18.522000000 PM,0.068359,0.008545,0.996338
12/9/2020 1:20:18.528000000 PM,0.07251,0.009033,0.994873
12/9/2020 1:20:18.534000000 PM,0.07251,0.01123,0.999268
12/9/2020 1:20:18.544000000 PM,0.068848,0.009521,1.002686
12/9/2020 1:20:18.556000000 PM,0.072021,0.012451,1.00415
12/9/2020 1:20:18.567000000 PM,0.068848,0.013184,0.995361
12/9/2020 1:20:18.593000000 PM,0.070801,0.005127,0.99585
12/9/2020 1:20:18.601000000 PM,0.069336,0.010254,0.998779
12/9/2020 1:20:18.610000000 PM,0.068115,0.012451,1.006348
12/9/2020 1:20:18.617000000 PM,0.073242,0.010742,1.000977
12/9/2020 1:20:18.639000000 PM,0.071533,0.01416,0.996582
12/9/2020 1:20:18.647000000 PM,0.072266,0.010498,1.004395
12/9/2020 1:20:18.663000000 PM,0.070312,0.006592,1.001953
12/9/2020 1:20:18.671000000 PM,0.068604,0.008057,1.005371
12/9/2020 1:20:18.683000000 PM,0.071777,0.014648,1.004395
12/9/2020 1:20:18.693000000 PM,0.07251,0.008789,0.999268
12/9/2020 1:20:18.704000000 PM,0.067627,0.013672,1.001953
12/9/2020 1:20:18.714000000 PM,0.071045,0.012695,1.005371
12/9/2020 1:20:18.723000000 PM,0.071777,0.003906,0.996582
12/9/2020 1:20:18.733000000 PM,0.072998,0.012451,1.005127
12/9/2020 1:20:18.743000000 PM,0.073486,0.01001,0.998779
12/9/2020 1:20:18.753000000 PM,0.071045,0.009033,0.998047
12/9/2020 1:20:18.765000000 PM,0.067139,0.01001,1.004883
12/9/2020 1:20:18.774000000 PM,0.07373,0.009277,1.00293
12/9/2020 1:20:18.787000000 PM,0.06958,0.01123,1.000732
12/9/2020 1:20:18.799000000 PM,0.071289,0.013428,0.998779
12/9/2020 1:20:18.810000000 PM,0.07251,0.01123,0.996826
12/9/2020 1:20:18.825000000 PM,0.071777,0.010742,1.003662
12/9/2020 1:20:18.833000000 PM,0.07373,0.01123,1.003662
12/9/2020 1:20:18.844000000 PM,0.066895,0.011963,0.99292
12/9/2020 1:20:18.854000000 PM,0.071533,0.01416,1.001221
12/9/2020 1:20:18.866000000 PM,0.07251,0.013428,1.003906
12/9/2020 1:20:18.876000000 PM,0.070557,0.011475,0.998779
12/9/2020 1:20:18.886000000 PM,0.07251,0.01123,1.004883
12/9/2020 1:20:18.896000000 PM,0.072021,0.009033,1.000977
12/9/2020 1:20:18.906000000 PM,0.068848,0.010986,1.001465
12/9/2020 1:20:18.916000000 PM,0.071289,0.013184,0.999512
12/9/2020 1:20:18.927000000 PM,0.072021,0.012695,1.007568
12/9/2020 1:20:18.938000000 PM,0.073486,0.010986,1.003174
12/9/2020 1:20:18.948000000 PM,0.072021,0.009033,1.007324
12/9/2020 1:20:18.960000000 PM,0.070557,0.013428,1.000977
12/9/2020 1:20:18.968000000 PM,0.069336,0.009521,1.005615
12/9/2020 1:20:18.979000000 PM,0.069336,0.01416,0.997314
12/9/2020 1:20:18.989000000 PM,0.070312,0.01123,1.000732
12/9/2020 1:20:19.001000000 PM,0.071289,0.011475,1.001709
12/9/2020 1:20:19.018000000 PM,0.065674,0.013184,1.002197
12/9/2020 1:20:19.029000000 PM,0.070068,0.013428,1.000732
12/9/2020 1:20:19.041000000 PM,0.069336,0.009277,0.995605
12/9/2020 1:20:19.053000000 PM,0.070068,0.012695,1.006348
12/9/2020 1:20:19.065000000 PM,0.068115,0.009277,0.99707
12/9/2020 1:20:19.076000000 PM,0.071289,0.010498,0.999023
12/9/2020 1:20:19.088000000 PM,0.07373,0.011475,0.998291
12/9/2020 1:20:19.099000000 PM,0.070801,0.009766,0.99292
12/9/2020 1:20:19.111000000 PM,0.072998,0.012695,1.00293
12/9/2020 1:20:19.118000000 PM,0.069336,0.010742,1.003418
12/9/2020 1:20:19.133000000 PM,0.071533,0.010254,1.002441
12/9/2020 1:20:19.141000000 PM,0.06958,0.008301,1.000244
12/9/2020 1:20:19.151000000 PM,0.071777,0.010254,1.001953
12/9/2020 1:20:19.161000000 PM,0.067627,0.008057,1.005371
12/9/2020 1:20:19.177000000 PM,0.068604,0.009766,0.997803
12/9/2020 1:20:19.185000000 PM,0.070801,0.009521,0.998291
12/9/2020 1:20:19.195000000 PM,0.07251,0.008789,0.997803
12/9/2020 1:20:19.211000000 PM,0.06958,0.012695,0.998291
12/9/2020 1:20:19.219000000 PM,0.072998,0.016113,1.001709
12/9/2020 1:20:19.231000000 PM,0.071777,0.009277,1.001953
12/9/2020 1:20:19.241000000 PM,0.072021,0.01001,0.999512
12/9/2020 1:20:19.252000000 PM,0.069824,0.007324,1
12/9/2020 1:20:19.268000000 PM,0.070312,0.012207,1.001465
12/9/2020 1:20:19.276000000 PM,0.069824,0.008545,1.008545
12/9/2020 1:20:19.287000000 PM,0.071533,0.007324,1.00293
12/9/2020 1:20:19.297000000 PM,0.067871,0.010498,0.998047
12/9/2020 1:20:19.307000000 PM,0.069092,0.00708,0.99707
12/9/2020 1:20:19.318000000 PM,0.06958,0.010254,0.998535
12/9/2020 1:20:19.329000000 PM,0.065918,0.013184,0.993896
12/9/2020 1:20:19.340000000 PM,0.06958,0.008301,0.998779
12/9/2020 1:20:19.351000000 PM,0.072266,0.010498,1.004883
12/9/2020 1:20:19.361000000 PM,0.072021,0.01416,0.998779
12/9/2020 1:20:19.375000000 PM,0.068848,0.010498,0.995117
12/9/2020 1:20:19.383000000 PM,0.069092,0.010254,0.998291
12/9/2020 1:20:19.395000000 PM,0.072266,0.009033,1.003418
12/9/2020 1:20:19.405000000 PM,0.070312,0.012939,1.001709
12/9/2020 1:20:19.415000000 PM,0.068604,0.008545,1
12/9/2020 1:20:19.426000000 PM,0.067383,0.009277,0.999023
12/9/2020 1:20:19.442000000 PM,0.072021,0.012939,1.003418
12/9/2020 1:20:19.450000000 PM,0.066895,0.012695,0.999268
12/9/2020 1:20:19.460000000 PM,0.068848,0.014893,0.999512
12/9/2020 1:20:19.471000000 PM,0.071533,0.012939,1.005127
12/9/2020 1:20:19.482000000 PM,0.06958,0.009521,1.006592
12/9/2020 1:20:19.497000000 PM,0.071533,0.015869,0.996826
12/9/2020 1:20:19.505000000 PM,0.070801,0.010742,1.006592
12/9/2020 1:20:19.518000000 PM,0.072754,0.010986,1.001465
12/9/2020 1:20:19.527000000 PM,0.07251,0.008789,0.995117
12/9/2020 1:20:19.537000000 PM,0.070312,0.009766,1.001465
12/9/2020 1:20:19.550000000 PM,0.070312,0.012695,0.997803
12/9/2020 1:20:19.561000000 PM,0.069824,0.013428,0.995117
12/9/2020 1:20:19.571000000 PM,0.06958,0.013428,0.992432
12/9/2020 1:20:19.583000000 PM,0.067871,0.01123,1.00293
12/9/2020 1:20:19.598000000 PM,0.068604,0.01001,1.006836
12/9/2020 1:20:19.605000000 PM,0.071777,0.009521,1.001221
12/9/2020 1:20:19.616000000 PM,0.072266,0.009033,1.004395
12/9/2020 1:20:19.626000000 PM,0.067627,0.013184,1.001465
12/9/2020 1:20:19.636000000 PM,0.072266,0.010742,1.00293
12/9/2020 1:20:19.647000000 PM,0.071289,0.008057,1.001953
12/9/2020 1:20:19.657000000 PM,0.069092,0.009033,1.002197
12/9/2020 1:20:19.669000000 PM,0.069336,0.007568,1.001709
12/9/2020 1:20:19.681000000 PM,0.073486,0.013184,0.999756
12/9/2020 1:20:19.692000000 PM,0.072021,0.006104,0.997803
12/9/2020 1:20:19.702000000 PM,0.07373,0.012207,0.998779
12/9/2020 1:20:19.713000000 PM,0.06958,0.010986,1.004395
12/9/2020 1:20:19.728000000 PM,0.067871,0.01001,1.001953
12/9/2020 1:20:19.736000000 PM,0.071045,0.007568,0.995605
12/9/2020 1:20:19.748000000 PM,0.072998,0.008057,1.001221
12/9/2020 1:20:19.761000000 PM,0.069336,0.006592,1.002197
12/9/2020 1:20:19.771000000 PM,0.075684,0.009766,1.008789
12/9/2020 1:20:19.784000000 PM,0.070801,0.007568,1.003174
12/9/2020 1:20:19.794000000 PM,0.073242,0.015869,1.008301
12/9/2020 1:20:19.804000000 PM,0.072266,0.012695,1.00293
12/9/2020 1:20:19.815000000 PM,0.07251,0.012451,1.002686
12/9/2020 1:20:19.825000000 PM,0.071533,0.010986,1.001221
12/9/2020 1:20:19.837000000 PM,0.069336,0.008545,1.002197
12/9/2020 1:20:19.847000000 PM,0.072754,0.010742,1.003662
12/9/2020 1:20:19.862000000 PM,0.069824,0.012695,1.003174
12/9/2020 1:20:19.870000000 PM,0.068604,0.005859,1.002197
12/9/2020 1:20:19.883000000 PM,0.070312,0.012451,0.998779
12/9/2020 1:20:19.893000000 PM,0.070312,0.011963,1.000244
12/9/2020 1:20:19.905000000 PM,0.068848,0.009521,1.002686
12/9/2020 1:20:19.915000000 PM,0.072021,0.011719,1.000977
12/9/2020 1:20:19.925000000 PM,0.068604,0.012939,1.010254
12/9/2020 1:20:19.935000000 PM,0.066406,0.012451,1.000732
12/9/2020 1:20:19.947000000 PM,0.071777,0.007324,0.998779
12/9/2020 1:20:19.957000000 PM,0.070068,0.008789,0.997559
12/9/2020 1:20:19.970000000 PM,0.070801,0.011963,1.00293
12/9/2020 1:20:19.984000000 PM,0.071045,0.010254,0.997803
12/9/2020 1:20:19.992000000 PM,0.072266,0.010498,1.00708
12/9/2020 1:20:20.003000000 PM,0.067871,0.008057,0.998535
12/9/2020 1:20:20.016000000 PM,0.071289,0.015869,1.005127
12/9/2020 1:20:20.029000000 PM,0.070557,0.01416,1.004639
12/9/2020 1:20:20.044000000 PM,0.070312,0.008057,1.000488
12/9/2020 1:20:20.053000000 PM,0.068359,0.006104,0.999512
12/9/2020 1:20:20.064000000 PM,0.072266,0.010742,1.001221
12/9/2020 1:20:20.076000000 PM,0.073486,0.010742,0.999268
12/9/2020 1:20:20.090000000 PM,0.070068,0.009766,0.994629
12/9/2020 1:20:20.099000000 PM,0.071045,0.010742,0.999268
12/9/2020 1:20:20.110000000 PM,0.067139,0.010742,0.998535
12/9/2020 1:20:20.120000000 PM,0.071289,0.013428,1.002441
12/9/2020 1:20:20.130000000 PM,0.06958,0.01416,0.999023
12/9/2020 1:20:20.140000000 PM,0.068604,0.005371,1.008789
12/9/2020 1:20:20.151000000 PM,0.073975,0.011719,1.003906
12/9/2020 1:20:20.161000000 PM,0.076172,0.009277,1.003906
12/9/2020 1:20:20.176000000 PM,0.071533,0.008301,1.003906
12/9/2020 1:20:20.184000000 PM,0.070068,0.010986,0.996582
12/9/2020 1:20:20.192000000 PM,0.067139,0.011475,1.003418
12/9/2020 1:20:20.212000000 PM,0.075928,0.008789,0.997559
12/9/2020 1:20:20.219000000 PM,0.06958,0.013672,0.994141
12/9/2020 1:20:20.231000000 PM,0.071289,0.00708,1.002197
12/9/2020 1:20:20.241000000 PM,0.068604,0.01001,0.999512
12/9/2020 1:20:20.250000000 PM,0.069092,0.009766,0.993896
12/9/2020 1:20:20.267000000 PM,0.072754,0.013184,1.000488
12/9/2020 1:20:20.275000000 PM,0.068848,0.005615,0.995117
12/9/2020 1:20:20.291000000 PM,0.073975,0.011475,1.000977
12/9/2020 1:20:20.299000000 PM,0.069092,0.013428,1.00293
12/9/2020 1:20:20.311000000 PM,0.071777,0.008057,0.99707
12/9/2020 1:20:20.321000000 PM,0.072754,0.012695,1.001709
12/9/2020 1:20:20.333000000 PM,0.068848,0.009766,1.006348
12/9/2020 1:20:20.343000000 PM,0.072266,0.012207,1.005371
12/9/2020 1:20:20.353000000 PM,0.068115,0.011475,1.000488
12/9/2020 1:20:20.364000000 PM,0.068604,0.009277,1.000732
12/9/2020 1:20:20.377000000 PM,0.072266,0.008301,1.001953
12/9/2020 1:20:20.386000000 PM,0.071777,0.009277,1
12/9/2020 1:20:20.399000000 PM,0.068604,0.016602,0.999268
12/9/2020 1:20:20.410000000 PM,0.071533,0.005371,1.008057
12/9/2020 1:20:20.422000000 PM,0.06543,0.011719,0.996094
12/9/2020 1:20:20.432000000 PM,0.067139,0.012451,1.006592
12/9/2020 1:20:20.442000000 PM,0.072266,0.012207,1.007324
12/9/2020 1:20:20.452000000 PM,0.070068,0.010742,1.003174
12/9/2020 1:20:20.462000000 PM,0.066895,0.00708,0.999512
12/9/2020 1:20:20.477000000 PM,0.069824,0.01123,0.997559
12/9/2020 1:20:20.485000000 PM,0.067383,0.010742,1.006348
12/9/2020 1:20:20.497000000 PM,0.069824,0.011963,1.003906
12/9/2020 1:20:20.512000000 PM,0.071045,0.008545,1.000488
12/9/2020 1:20:20.522000000 PM,0.06958,0.013184,0.994873
12/9/2020 1:20:20.532000000 PM,0.070312,0.009033,1.000488
12/9/2020 1:20:20.543000000 PM,0.070801,0.006348,1.000732
12/9/2020 1:20:20.553000000 PM,0.071533,0.011475,1.006592
12/9/2020 1:20:20.565000000 PM,0.070801,0.006348,1.005859
12/9/2020 1:20:20.575000000 PM,0.073486,0.012939,0.996582
12/9/2020 1:20:20.585000000 PM,0.068848,0.014893,0.999023
12/9/2020 1:20:20.595000000 PM,0.072998,0.015381,1.002197
12/9/2020 1:20:20.607000000 PM,0.07373,0.010742,1.001953
12/9/2020 1:20:20.617000000 PM,0.068604,0.009277,0.996582
12/9/2020 1:20:20.630000000 PM,0.066162,0.012207,1.003174
12/9/2020 1:20:20.640000000 PM,0.069824,0.008789,1.002441
12/9/2020 1:20:20.655000000 PM,0.072754,0.011475,0.995605
12/9/2020 1:20:20.663000000 PM,0.072021,0.00708,0.998047
12/9/2020 1:20:20.673000000 PM,0.071289,0.007568,1.00415
12/9/2020 1:20:20.689000000 PM,0.073242,0.015381,1.002197
12/9/2020 1:20:20.696000000 PM,0.073242,0.010986,1.008789
12/9/2020 1:20:20.709000000 PM,0.070068,0.007568,1.000244
12/9/2020 1:20:20.719000000 PM,0.069824,0.014404,0.996826
12/9/2020 1:20:20.729000000 PM,0.067871,0.009277,1
12/9/2020 1:20:20.738000000 PM,0.072754,0.010498,0.999023
12/9/2020 1:20:20.748000000 PM,0.07251,0.008301,1.001221
12/9/2020 1:20:20.760000000 PM,0.07251,0.01001,0.995605
12/9/2020 1:20:20.770000000 PM,0.071777,0.009277,1.002441
12/9/2020 1:20:20.781000000 PM,0.07373,0.008789,0.996826
12/9/2020 1:20:20.791000000 PM,0.070557,0.008545,1.000732
12/9/2020 1:20:20.803000000 PM,0.069824,0.012207,1.000977
12/9/2020 1:20:20.815000000 PM,0.068359,0.009521,1.000732
12/9/2020 1:20:20.827000000 PM,0.073242,0.008789,1.00293
12/9/2020 1:20:20.842000000 PM,0.067871,0.008789,0.997803
12/9/2020 1:20:20.850000000 PM,0.07251,0.011719,1
12/9/2020 1:20:20.860000000 PM,0.070801,0.012207,1.008301
12/9/2020 1:20:20.872000000 PM,0.068359,0.011475,0.998291
12/9/2020 1:20:20.882000000 PM,0.071045,0.013428,1.002197
12/9/2020 1:20:20.892000000 PM,0.070068,0.008789,0.99585
12/9/2020 1:20:20.902000000 PM,0.069092,0.010742,1.003418
12/9/2020 1:20:20.915000000 PM,0.071289,0.006592,0.992188
12/9/2020 1:20:20.924000000 PM,0.06958,0.01123,1.001953
12/9/2020 1:20:20.934000000 PM,0.068604,0.01001,1.000977
12/9/2020 1:20:20.944000000 PM,0.069824,0.008789,1.008057
12/9/2020 1:20:20.959000000 PM,0.071533,0.006104,0.991455
12/9/2020 1:20:20.966000000 PM,0.069336,0.010254,0.996826
12/9/2020 1:20:20.978000000 PM,0.071045,0.01709,1.00415
12/9/2020 1:20:20.988000000 PM,0.070801,0.011963,1.002441
12/9/2020 1:20:20.999000000 PM,0.070557,0.009277,0.998291
12/9/2020 1:20:21.017000000 PM,0.069336,0.009033,1.000732
12/9/2020 1:20:21.025000000 PM,0.070068,0.010986,1.002686
12/9/2020 1:20:21.035000000 PM,0.075195,0.013184,0.997559
12/9/2020 1:20:21.048000000 PM,0.073242,0.010742,0.999756
12/9/2020 1:20:21.058000000 PM,0.070801,0.010986,0.999268
12/9/2020 1:20:21.069000000 PM,0.071045,0.012939,0.996826
12/9/2020 1:20:21.080000000 PM,0.065918,0.008789,1.000732
12/9/2020 1:20:21.095000000 PM,0.068848,0.009277,0.998779
12/9/2020 1:20:21.103000000 PM,0.067871,0.010498,1.010986
12/9/2020 1:20:21.115000000 PM,0.068848,0.01001,1.003906
12/9/2020 1:20:21.126000000 PM,0.074951,0.011719,0.996338
12/9/2020 1:20:21.142000000 PM,0.070312,0.010742,0.999756
12/9/2020 1:20:21.150000000 PM,0.066895,0.010254,1.003174
12/9/2020 1:20:21.161000000 PM,0.069336,0.014893,1.006836
12/9/2020 1:20:21.171000000 PM,0.069092,0.01123,1.004395
12/9/2020 1:20:21.181000000 PM,0.070801,0.007812,1.002197
12/9/2020 1:20:21.192000000 PM,0.070312,0.009033,0.996826
12/9/2020 1:20:21.204000000 PM,0.068115,0.01123,1.00293
12/9/2020 1:20:21.217000000 PM,0.069336,0.010742,0.999268
12/9/2020 1:20:21.228000000 PM,0.071289,0.011963,0.993164
12/9/2020 1:20:21.238000000 PM,0.07373,0.005859,1.001953
12/9/2020 1:20:21.249000000 PM,0.067871,0.008301,1.012695
12/9/2020 1:20:21.266000000 PM,0.06665,0.010742,1.004639
12/9/2020 1:20:21.274000000 PM,0.068604,0.010742,0.998535
12/9/2020 1:20:21.285000000 PM,0.069092,0.010986,1.004395
12/9/2020 1:20:21.295000000 PM,0.068115,0.013916,1.000488
12/9/2020 1:20:21.307000000 PM,0.070801,0.014648,0.997314
12/9/2020 1:20:21.319000000 PM,0.069336,0.010986,1.000977
12/9/2020 1:20:21.331000000 PM,0.073975,0.011475,0.999756
12/9/2020 1:20:21.347000000 PM,0.071533,0.007568,0.999512
12/9/2020 1:20:21.355000000 PM,0.069092,0.01001,1.005371
12/9/2020 1:20:21.365000000 PM,0.07373,0.01001,0.997314
12/9/2020 1:20:21.375000000 PM,0.069824,0.010254,0.995117
12/9/2020 1:20:21.386000000 PM,0.068359,0.010986,1.003662
12/9/2020 1:20:21.396000000 PM,0.071777,0.014404,1.001709
12/9/2020 1:20:21.408000000 PM,0.070312,0.010498,1.000244
12/9/2020 1:20:21.420000000 PM,0.07251,0.011475,1.009033
12/9/2020 1:20:21.428000000 PM,0.070312,0.012207,1.001953
12/9/2020 1:20:21.439000000 PM,0.071533,0.003906,1.005859
12/9/2020 1:20:21.449000000 PM,0.069092,0.009277,1.002441
12/9/2020 1:20:21.460000000 PM,0.068359,0.014404,0.996826
12/9/2020 1:20:21.475000000 PM,0.071289,0.005615,0.994141
12/9/2020 1:20:21.483000000 PM,0.068604,0.010498,1
12/9/2020 1:20:21.494000000 PM,0.068115,0.011719,0.991699
12/9/2020 1:20:21.506000000 PM,0.070801,0.008789,1.00708
12/9/2020 1:20:21.516000000 PM,0.071289,0.010498,0.999756
12/9/2020 1:20:21.528000000 PM,0.072754,0.011719,0.999756
12/9/2020 1:20:21.539000000 PM,0.071533,0.01001,1.005371
12/9/2020 1:20:21.549000000 PM,0.06958,0.018555,0.998047
12/9/2020 1:20:21.560000000 PM,0.068848,0.008545,1
12/9/2020 1:20:21.570000000 PM,0.073242,0.012207,1.000488
12/9/2020 1:20:21.580000000 PM,0.06958,0.01123,1.003418
12/9/2020 1:20:21.590000000 PM,0.069824,0.009033,1.004639
12/9/2020 1:20:21.601000000 PM,0.07251,0.013672,1
12/9/2020 1:20:21.613000000 PM,0.072021,0.006104,1.001465
12/9/2020 1:20:21.620000000 PM,0.072266,0.013184,1.004883
12/9/2020 1:20:21.641000000 PM,0.072021,0.005615,1.000732
12/9/2020 1:20:21.649000000 PM,0.067627,0.013428,1.000732
12/9/2020 1:20:21.661000000 PM,0.069092,0.00708,1.003906
12/9/2020 1:20:21.671000000 PM,0.072266,0.012695,1.003418
12/9/2020 1:20:21.682000000 PM,0.073486,0.009521,1.004395
12/9/2020 1:20:21.693000000 PM,0.074707,0.006348,1.000244
12/9/2020 1:20:21.703000000 PM,0.071045,0.01123,0.999023
12/9/2020 1:20:21.712000000 PM,0.07251,0.009277,1.003418
12/9/2020 1:20:21.724000000 PM,0.071289,0.01123,1.002686
12/9/2020 1:20:21.735000000 PM,0.070557,0.010742,0.999023
12/9/2020 1:20:21.744000000 PM,0.07251,0.006348,1.004395
12/9/2020 1:20:21.755000000 PM,0.067383,0.013672,0.998291
12/9/2020 1:20:21.768000000 PM,0.063232,0.011963,1.000977
12/9/2020 1:20:21.775000000 PM,0.070068,0.011963,1.000732
12/9/2020 1:20:21.787000000 PM,0.071533,0.009033,1.002441
12/9/2020 1:20:21.799000000 PM,0.070312,0.008545,0.999023
12/9/2020 1:20:21.806000000 PM,0.070557,0.010742,0.991211
12/9/2020 1:20:21.819000000 PM,0.06958,0.006592,1.00708
12/9/2020 1:20:21.826000000 PM,0.06958,0.010254,0.994141
12/9/2020 1:20:21.834000000 PM,0.068604,0.008301,1.001709
12/9/2020 1:20:21.857000000 PM,0.068848,0.010742,1.005371
12/9/2020 1:20:21.865000000 PM,0.070068,0.011963,1.001465
12/9/2020 1:20:21.883000000 PM,0.071289,0.008057,0.997803
12/9/2020 1:20:21.892000000 PM,0.070312,0.01416,0.995361
12/9/2020 1:20:21.899000000 PM,0.073486,0.009766,1.000244
12/9/2020 1:20:21.905000000 PM,0.067627,0.008057,0.998535
12/9/2020 1:20:21.917000000 PM,0.067139,0.008545,0.997803
12/9/2020 1:20:21.924000000 PM,0.068848,0.008545,1.004395
12/9/2020 1:20:21.934000000 PM,0.071289,0.009277,1.003662
12/9/2020 1:20:21.944000000 PM,0.073242,0.01001,1.006348
12/9/2020 1:20:21.958000000 PM,0.068115,0.009033,1.000732
12/9/2020 1:20:21.965000000 PM,0.06958,0.00708,1.005615
12/9/2020 1:20:21.974000000 PM,0.067627,0.012939,1.004883
12/9/2020 1:20:21.984000000 PM,0.068848,0.007812,0.996338
12/9/2020 1:20:21.994000000 PM,0.06958,0.003174,1.002686
12/9/2020 1:20:22.010000000 PM,0.070557,0.012207,0.997314
12/9/2020 1:20:22.017000000 PM,0.072266,0.009277,1
12/9/2020 1:20:22.024000000 PM,0.070557,0.008545,1.002197
12/9/2020 1:20:22.034000000 PM,0.067383,0.011719,1.00415
12/9/2020 1:20:22.058000000 PM,0.064453,0.009521,1.003662
12/9/2020 1:20:22.080000000 PM,0.071289,0.010742,1.00415
12/9/2020 1:20:22.087000000 PM,0.071777,0.011719,0.999512
12/9/2020 1:20:22.107000000 PM,0.069092,0.01123,0.998291
12/9/2020 1:20:22.113000000 PM,0.071777,0.007324,1.008789
12/9/2020 1:20:22.119000000 PM,0.069336,0.009766,1
12/9/2020 1:20:22.125000000 PM,0.06543,0.011719,1.000732
12/9/2020 1:20:22.134000000 PM,0.072754,0.011963,0.995117
12/9/2020 1:20:22.144000000 PM,0.073975,0.009033,1.00293
12/9/2020 1:20:22.154000000 PM,0.071289,0.007324,0.995605
12/9/2020 1:20:22.164000000 PM,0.073486,0.011475,0.997803
12/9/2020 1:20:22.174000000 PM,0.069824,0.011963,1.004883
12/9/2020 1:20:22.184000000 PM,0.06665,0.008545,1.002441
12/9/2020 1:20:22.194000000 PM,0.06665,0.010498,1.006104
12/9/2020 1:20:22.206000000 PM,0.070068,0.012695,1.003662
12/9/2020 1:20:22.214000000 PM,0.071777,0.013184,0.998779
12/9/2020 1:20:22.224000000 PM,0.070801,0.011719,1.001221
12/9/2020 1:20:22.234000000 PM,0.070312,0.011475,1.001221
12/9/2020 1:20:22.244000000 PM,0.070312,0.010498,0.998047
12/9/2020 1:20:22.309000000 PM,0.069824,0.010742,1.004639
12/9/2020 1:20:22.317000000 PM,0.068359,0.011719,1.003662
12/9/2020 1:20:22.327000000 PM,0.069336,0.012695,1.008545
12/9/2020 1:20:22.342000000 PM,0.06665,0.008789,1.00415
12/9/2020 1:20:22.351000000 PM,0.072754,0.008301,0.998535
12/9/2020 1:20:22.360000000 PM,0.071533,0.010254,1.004639
12/9/2020 1:20:22.370000000 PM,0.068359,0.016846,1.001221
12/9/2020 1:20:22.382000000 PM,0.071289,0.006836,1.001953
12/9/2020 1:20:22.392000000 PM,0.070557,0.006592,1.006836
12/9/2020 1:20:22.401000000 PM,0.069336,0.010742,0.994873
12/9/2020 1:20:22.408000000 PM,0.070801,0.008057,1.000732
12/9/2020 1:20:22.414000000 PM,0.069336,0.009521,1.004883
12/9/2020 1:20:22.427000000 PM,0.070312,0.01001,1.008545
12/9/2020 1:20:22.434000000 PM,0.071289,0.010254,1.005615
12/9/2020 1:20:22.444000000 PM,0.068359,0.009521,0.999512
12/9/2020 1:20:22.454000000 PM,0.069824,0.008057,0.994873
12/9/2020 1:20:22.464000000 PM,0.069092,0.012695,1.006836
12/9/2020 1:20:22.475000000 PM,0.067627,0.01123,0.995361
12/9/2020 1:20:22.484000000 PM,0.070068,0.008545,1.009766
12/9/2020 1:20:22.494000000 PM,0.071289,0.015137,0.996338
12/9/2020 1:20:22.504000000 PM,0.067627,0.008057,0.999756
12/9/2020 1:20:22.514000000 PM,0.069336,0.007324,1.004883
12/9/2020 1:20:22.524000000 PM,0.070801,0.014893,0.999512
12/9/2020 1:20:22.540000000 PM,0.068359,0.012939,1.003906
12/9/2020 1:20:22.547000000 PM,0.07373,0.006836,0.994141
12/9/2020 1:20:22.554000000 PM,0.07373,0.011475,1.00293
12/9/2020 1:20:22.564000000 PM,0.071045,0.008789,1
12/9/2020 1:20:22.574000000 PM,0.072021,0.01123,1.001221
12/9/2020 1:20:22.594000000 PM,0.06543,0.01123,0.996094
12/9/2020 1:20:22.604000000 PM,0.071045,0.010986,1.002197
12/9/2020 1:20:22.628000000 PM,0.06958,0.008789,0.99585
12/9/2020 1:20:22.653000000 PM,0.071289,0.008545,1.003662
12/9/2020 1:20:22.660000000 PM,0.068604,0.009766,1.005859
12/9/2020 1:20:22.666000000 PM,0.070312,0.014404,1.000732
12/9/2020 1:20:22.691000000 PM,0.070068,0.009766,0.999756
12/9/2020 1:20:22.699000000 PM,0.070801,0.008545,1.004639
12/9/2020 1:20:22.709000000 PM,0.069336,0.007812,1.002686
12/9/2020 1:20:22.720000000 PM,0.072021,0.013184,0.993896
12/9/2020 1:20:22.736000000 PM,0.066895,0.009521,1
12/9/2020 1:20:22.744000000 PM,0.073242,0.012207,1.00415
12/9/2020 1:20:22.756000000 PM,0.068848,0.009521,1.001221
12/9/2020 1:20:22.767000000 PM,0.067627,0.00708,1.002197
12/9/2020 1:20:22.777000000 PM,0.071777,0.010742,0.996826
12/9/2020 1:20:22.787000000 PM,0.068604,0.009033,1.006104
12/9/2020 1:20:22.797000000 PM,0.068359,0.012695,1.008301
12/9/2020 1:20:22.807000000 PM,0.072754,0.013916,0.999756
12/9/2020 1:20:22.817000000 PM,0.069824,0.007568,1.000977
12/9/2020 1:20:22.832000000 PM,0.068848,0.01123,0.996094
12/9/2020 1:20:22.840000000 PM,0.06958,0.01001,1.000732
12/9/2020 1:20:22.852000000 PM,0.070312,0.011719,1.000488
12/9/2020 1:20:22.868000000 PM,0.06958,0.010742,1
12/9/2020 1:20:22.876000000 PM,0.069092,0.011475,0.993652
12/9/2020 1:20:22.888000000 PM,0.06543,0.011963,0.998535
12/9/2020 1:20:22.898000000 PM,0.072266,0.009033,0.999512
12/9/2020 1:20:22.908000000 PM,0.069824,0.010742,1.001221
12/9/2020 1:20:22.920000000 PM,0.067627,0.013672,1.005859
12/9/2020 1:20:22.929000000 PM,0.074219,0.011963,1.003906
12/9/2020 1:20:22.940000000 PM,0.069092,0.015625,0.992676
12/9/2020 1:20:22.950000000 PM,0.067383,0.011719,0.996094
12/9/2020 1:20:22.965000000 PM,0.071533,0.009766,1.001465
12/9/2020 1:20:22.973000000 PM,0.070557,0.012939,0.995361
12/9/2020 1:20:22.979000000 PM,0.073242,0.013184,1.003906
12/9/2020 1:20:22.991000000 PM,0.068115,0.013184,1.003662
12/9/2020 1:20:22.997000000 PM,0.068604,0.012207,0.99585
12/9/2020 1:20:23.004000000 PM,0.072754,0.006348,0.999512
12/9/2020 1:20:23.014000000 PM,0.06958,0.010986,1.003662
12/9/2020 1:20:23.028000000 PM,0.069092,0.012451,1.005859
12/9/2020 1:20:23.037000000 PM,0.070068,0.007812,0.994141
12/9/2020 1:20:23.064000000 PM,0.071533,0.01416,1.003418
12/9/2020 1:20:23.072000000 PM,0.071045,0.010986,0.999756
12/9/2020 1:20:23.082000000 PM,0.068848,0.013672,0.999268
12/9/2020 1:20:23.093000000 PM,0.067871,0.008545,0.998779
12/9/2020 1:20:23.100000000 PM,0.068359,0.011963,0.998291
12/9/2020 1:20:23.107000000 PM,0.069336,0.009033,1.003174
12/9/2020 1:20:23.116000000 PM,0.068359,0.007324,1.003418
12/9/2020 1:20:23.128000000 PM,0.06958,0.009521,0.999756
12/9/2020 1:20:23.149000000 PM,0.067383,0.011963,1.002686
12/9/2020 1:20:23.159000000 PM,0.069092,0.010498,1.000488
12/9/2020 1:20:23.168000000 PM,0.071777,0.009766,1.00415
12/9/2020 1:20:23.178000000 PM,0.070068,0.012695,1.00415
12/9/2020 1:20:23.184000000 PM,0.066895,0.009277,1.005615
12/9/2020 1:20:23.197000000 PM,0.072998,0.010986,0.996338
12/9/2020 1:20:23.204000000 PM,0.070068,0.009277,0.998047
12/9/2020 1:20:23.218000000 PM,0.068359,0.013428,0.998291
12/9/2020 1:20:23.225000000 PM,0.070801,0.009277,0.996582
12/9/2020 1:20:23.245000000 PM,0.068604,0.009277,1.001221
12/9/2020 1:20:23.257000000 PM,0.070068,0.010986,1
12/9/2020 1:20:23.266000000 PM,0.068359,0.012207,0.998047
12/9/2020 1:20:23.274000000 PM,0.071289,0.012939,1.000488
12/9/2020 1:20:23.285000000 PM,0.069092,0.011475,1.003174
12/9/2020 1:20:23.297000000 PM,0.070801,0.01001,0.999756
12/9/2020 1:20:23.305000000 PM,0.07373,0.009277,1.007324
12/9/2020 1:20:23.314000000 PM,0.071777,0.008789,1.000732
12/9/2020 1:20:23.328000000 PM,0.072754,0.009033,1.000244
12/9/2020 1:20:23.335000000 PM,0.070801,0.013672,1.004639
12/9/2020 1:20:23.346000000 PM,0.072021,0.011963,0.999268
12/9/2020 1:20:23.354000000 PM,0.068115,0.010498,0.996582
12/9/2020 1:20:23.364000000 PM,0.070312,0.012939,0.998047
12/9/2020 1:20:23.374000000 PM,0.070557,0.007568,0.999512
12/9/2020 1:20:23.383000000 PM,0.068115,0.010254,1.005615
12/9/2020 1:20:23.393000000 PM,0.071533,0.01001,0.995117
12/9/2020 1:20:23.403000000 PM,0.071533,0.010986,1.008057
12/9/2020 1:20:23.414000000 PM,0.067871,0.010986,0.995117
12/9/2020 1:20:23.423000000 PM,0.068604,0.010498,1.002197
12/9/2020 1:20:23.433000000 PM,0.068848,0.013184,1.003906
12/9/2020 1:20:23.443000000 PM,0.070068,0.009033,0.996826
12/9/2020 1:20:23.453000000 PM,0.068848,0.010254,1.001465
12/9/2020 1:20:23.464000000 PM,0.06665,0.01123,1.003906
12/9/2020 1:20:23.473000000 PM,0.069336,0.012939,1.002441
12/9/2020 1:20:23.711000000 PM,0.072021,0.010254,0.998047
12/9/2020 1:20:23.759000000 PM,0.066406,0.010986,1.001953
12/9/2020 1:20:23.767000000 PM,0.072266,0.008057,0.994873
12/9/2020 1:20:23.774000000 PM,0.068604,0.014893,0.997559
12/9/2020 1:20:23.790000000 PM,0.067627,0.012939,1.001953
12/9/2020 1:20:23.796000000 PM,0.070312,0.007324,1.009277
12/9/2020 1:20:23.803000000 PM,0.070068,0.011963,1.002441
12/9/2020 1:20:23.815000000 PM,0.070068,0.009277,1.000244
12/9/2020 1:20:23.824000000 PM,0.067627,0.010986,1.003418
12/9/2020 1:20:23.833000000 PM,0.070312,0.007324,1.000488
12/9/2020 1:20:23.843000000 PM,0.069092,0.013672,0.994873
12/9/2020 1:20:23.853000000 PM,0.071777,0.00708,1.001709
12/9/2020 1:20:23.863000000 PM,0.071777,0.01001,0.996582
12/9/2020 1:20:23.874000000 PM,0.068848,0.008301,1.005859
12/9/2020 1:20:23.883000000 PM,0.071045,0.006836,0.996094
12/9/2020 1:20:23.893000000 PM,0.06958,0.01123,1.001709
12/9/2020 1:20:23.908000000 PM,0.067871,0.013184,0.998535
12/9/2020 1:20:23.915000000 PM,0.067871,0.012451,0.997314
12/9/2020 1:20:23.923000000 PM,0.069824,0.008545,1.003906
12/9/2020 1:20:23.933000000 PM,0.072754,0.010986,1.005371
12/9/2020 1:20:23.943000000 PM,0.075439,0.012451,1.006348
12/9/2020 1:20:23.954000000 PM,0.066895,0.009033,1.005859
12/9/2020 1:20:23.964000000 PM,0.071045,0.010986,1.003906
12/9/2020 1:20:23.982000000 PM,0.071045,0.009521,0.99707
12/9/2020 1:20:23.988000000 PM,0.066406,0.012695,0.997803
12/9/2020 1:20:23.994000000 PM,0.070801,0.007324,1.000977
12/9/2020 1:20:24.056000000 PM,0.068848,0.01416,0.998779
12/9/2020 1:20:24.064000000 PM,0.070801,0.00708,1.005371
12/9/2020 1:20:24.085000000 PM,0.066162,0.012207,1.002686
12/9/2020 1:20:24.093000000 PM,0.06543,0.008301,0.998291
12/9/2020 1:20:24.106000000 PM,0.073242,0.013184,0.998535
12/9/2020 1:20:24.113000000 PM,0.068848,0.014404,0.993896
12/9/2020 1:20:24.123000000 PM,0.070068,0.010498,1.001709
12/9/2020 1:20:24.139000000 PM,0.07251,0.009277,0.998779
12/9/2020 1:20:24.145000000 PM,0.07373,0.016846,1
12/9/2020 1:20:24.159000000 PM,0.072998,0.010498,0.999512
12/9/2020 1:20:24.181000000 PM,0.074219,0.015869,0.995605
12/9/2020 1:20:24.189000000 PM,0.070312,0.009521,1.005615
12/9/2020 1:20:24.201000000 PM,0.070557,0.013428,1.000244
12/9/2020 1:20:24.211000000 PM,0.070068,0.010498,0.994629
12/9/2020 1:20:24.222000000 PM,0.069824,0.010254,0.998291
12/9/2020 1:20:24.233000000 PM,0.071289,0.015137,1.003418
12/9/2020 1:20:24.248000000 PM,0.074707,0.007812,1.002686
12/9/2020 1:20:24.257000000 PM,0.071533,0.012695,1.000488
12/9/2020 1:20:24.269000000 PM,0.072021,0.007812,1.000977
12/9/2020 1:20:24.278000000 PM,0.072998,0.007324,1.004639
12/9/2020 1:20:24.287000000 PM,0.070557,0.015625,1.000732
12/9/2020 1:20:24.307000000 PM,0.070068,0.01001,1.00293
12/9/2020 1:20:24.315000000 PM,0.07251,0.010742,1.00708
12/9/2020 1:20:24.331000000 PM,0.070801,0.009033,0.99707
12/9/2020 1:20:24.339000000 PM,0.068848,0.013916,1.010254
12/9/2020 1:20:24.350000000 PM,0.06543,0.01123,1.001953
12/9/2020 1:20:24.360000000 PM,0.068359,0.012939,1.007568
12/9/2020 1:20:24.372000000 PM,0.067627,0.011963,0.999756
12/9/2020 1:20:24.382000000 PM,0.068604,0.006104,1.003662
12/9/2020 1:20:24.398000000 PM,0.067871,0.00708,1.00708
12/9/2020 1:20:24.406000000 PM,0.072266,0.011475,1.001709
12/9/2020 1:20:24.416000000 PM,0.070801,0.01123,1.004395
12/9/2020 1:20:24.427000000 PM,0.07251,0.009033,1.000732
12/9/2020 1:20:24.437000000 PM,0.067871,0.012451,0.995605
12/9/2020 1:20:24.447000000 PM,0.069092,0.010742,0.999512
12/9/2020 1:20:24.457000000 PM,0.068848,0.007568,1.002686
12/9/2020 1:20:24.468000000 PM,0.068604,0.011719,0.99707
12/9/2020 1:20:24.478000000 PM,0.069092,0.01001,1.006836
12/9/2020 1:20:24.490000000 PM,0.074707,0.009521,1.007324
12/9/2020 1:20:24.498000000 PM,0.073242,0.01123,0.998779
12/9/2020 1:20:24.518000000 PM,0.070068,0.011963,1.001465
12/9/2020 1:20:24.526000000 PM,0.069824,0.006348,1.011475
12/9/2020 1:20:24.536000000 PM,0.067383,0.01416,0.999023
12/9/2020 1:20:24.546000000 PM,0.070557,0.010254,0.999023
12/9/2020 1:20:24.556000000 PM,0.072998,0.010986,1.005371
12/9/2020 1:20:24.566000000 PM,0.071533,0.013428,0.998291
12/9/2020 1:20:24.577000000 PM,0.071533,0.012451,1.000488
12/9/2020 1:20:24.587000000 PM,0.06665,0.011719,1.001953
12/9/2020 1:20:24.603000000 PM,0.070557,0.012939,1.003906
12/9/2020 1:20:24.611000000 PM,0.072266,0.012207,1.001953
12/9/2020 1:20:24.621000000 PM,0.06958,0.013428,0.996826
12/9/2020 1:20:24.637000000 PM,0.070557,0.010498,1.003418
12/9/2020 1:20:24.644000000 PM,0.071777,0.013672,1.002441
12/9/2020 1:20:24.655000000 PM,0.068848,0.010986,1.006348
12/9/2020 1:20:24.667000000 PM,0.067383,0.011719,1.004395
12/9/2020 1:20:24.679000000 PM,0.073975,0.008789,1.006348
12/9/2020 1:20:24.687000000 PM,0.068115,0.01123,1.002686
12/9/2020 1:20:24.701000000 PM,0.070557,0.01416,1.000977
12/9/2020 1:20:24.711000000 PM,0.067383,0.012207,1.003662
12/9/2020 1:20:24.721000000 PM,0.072021,0.01416,0.999023
12/9/2020 1:20:24.730000000 PM,0.071777,0.010254,0.996094
12/9/2020 1:20:24.742000000 PM,0.071777,0.009277,0.996094
12/9/2020 1:20:24.751000000 PM,0.071777,0.008545,1.001953
12/9/2020 1:20:24.764000000 PM,0.066162,0.01416,0.999512
12/9/2020 1:20:24.779000000 PM,0.067139,0.01123,1.004639
12/9/2020 1:20:24.787000000 PM,0.068359,0.011963,1.00293
12/9/2020 1:20:24.798000000 PM,0.069336,0.010742,1.001465
12/9/2020 1:20:24.808000000 PM,0.072754,0.009521,1.007568
12/9/2020 1:20:24.819000000 PM,0.070068,0.009033,0.998291
12/9/2020 1:20:24.828000000 PM,0.068359,0.010254,1
12/9/2020 1:20:24.839000000 PM,0.07251,0.009521,1.000977
12/9/2020 1:20:24.849000000 PM,0.070068,0.010742,0.997803
12/9/2020 1:20:24.859000000 PM,0.07251,0.013184,1.003662
12/9/2020 1:20:24.869000000 PM,0.069336,0.012207,1.004883
12/9/2020 1:20:24.879000000 PM,0.069092,0.011963,1.00708
12/9/2020 1:20:24.891000000 PM,0.071289,0.011475,1.006104
12/9/2020 1:20:24.904000000 PM,0.069336,0.007568,1.003906
12/9/2020 1:20:24.914000000 PM,0.069824,0.013916,1.004395
12/9/2020 1:20:24.924000000 PM,0.071045,0.01123,0.994629
12/9/2020 1:20:24.934000000 PM,0.071289,0.010742,1.001953
12/9/2020 1:20:24.943000000 PM,0.071533,0.01123,1.002441
12/9/2020 1:20:24.955000000 PM,0.068359,0.010498,1.003662
12/9/2020 1:20:24.966000000 PM,0.072021,0.010498,0.999023
12/9/2020 1:20:24.975000000 PM,0.067139,0.003418,0.999512
12/9/2020 1:20:24.987000000 PM,0.069824,0.013672,1.003906
12/9/2020 1:20:25.000000000 PM,0.071777,0.010742,0.999512
12/9/2020 1:20:25.013000000 PM,0.070801,0.009277,1
12/9/2020 1:20:25.023000000 PM,0.06543,0.007324,0.995605
12/9/2020 1:20:25.033000000 PM,0.067627,0.008057,1.000488
12/9/2020 1:20:25.044000000 PM,0.072998,0.009521,0.996582
12/9/2020 1:20:25.056000000 PM,0.071045,0.009766,1.003418
12/9/2020 1:20:25.066000000 PM,0.069336,0.01001,0.99585
12/9/2020 1:20:25.076000000 PM,0.067383,0.010986,1.00708
12/9/2020 1:20:25.086000000 PM,0.067627,0.01123,1.008301
12/9/2020 1:20:25.097000000 PM,0.071045,0.00708,0.995605
12/9/2020 1:20:25.109000000 PM,0.068604,0.011719,1.002197
12/9/2020 1:20:25.124000000 PM,0.070068,0.012939,0.999512
12/9/2020 1:20:25.132000000 PM,0.070557,0.00708,0.997803
12/9/2020 1:20:25.147000000 PM,0.067139,0.01123,0.997803
12/9/2020 1:20:25.155000000 PM,0.07373,0.01001,0.998779
12/9/2020 1:20:25.165000000 PM,0.069824,0.015137,1.005371
12/9/2020 1:20:25.175000000 PM,0.06543,0.013428,1.004639
12/9/2020 1:20:25.188000000 PM,0.07251,0.011963,1.005615
12/9/2020 1:20:25.198000000 PM,0.066406,0.006348,0.996582
12/9/2020 1:20:25.210000000 PM,0.06958,0.006592,0.997803
12/9/2020 1:20:25.225000000 PM,0.065674,0.006104,0.996094
12/9/2020 1:20:25.233000000 PM,0.068359,0.008789,1.002686
12/9/2020 1:20:25.248000000 PM,0.070801,0.01123,1.005615
12/9/2020 1:20:25.256000000 PM,0.07251,0.014648,1.006348
12/9/2020 1:20:25.266000000 PM,0.070068,0.011475,1.005127
12/9/2020 1:20:25.276000000 PM,0.071289,0.011475,0.999756
12/9/2020 1:20:25.291000000 PM,0.071533,0.010498,0.998291
12/9/2020 1:20:25.299000000 PM,0.06665,0.009277,1.007812
12/9/2020 1:20:25.312000000 PM,0.065186,0.010986,1.005859
12/9/2020 1:20:25.321000000 PM,0.069824,0.01123,1.004883
12/9/2020 1:20:25.333000000 PM,0.06958,0.010986,0.992676
12/9/2020 1:20:25.348000000 PM,0.071777,0.012451,0.999512
12/9/2020 1:20:25.355000000 PM,0.069092,0.01123,0.992432
12/9/2020 1:20:25.367000000 PM,0.074219,0.011719,0.997314
12/9/2020 1:20:25.377000000 PM,0.070801,0.01123,0.999023
12/9/2020 1:20:25.389000000 PM,0.066162,0.008789,1.001465
12/9/2020 1:20:25.399000000 PM,0.069092,0.01123,1.002686
12/9/2020 1:20:25.411000000 PM,0.068848,0.010742,0.998535
12/9/2020 1:20:25.419000000 PM,0.068604,0.012207,0.996582
12/9/2020 1:20:25.431000000 PM,0.070312,0.009766,1.004883
12/9/2020 1:20:25.441000000 PM,0.068604,0.010498,0.999756
12/9/2020 1:20:25.452000000 PM,0.069092,0.013672,1.01001
12/9/2020 1:20:25.463000000 PM,0.073486,0.008545,0.996826
12/9/2020 1:20:25.473000000 PM,0.068604,0.01123,1.004639
12/9/2020 1:20:25.483000000 PM,0.068848,0.009521,1.003418
12/9/2020 1:20:25.494000000 PM,0.068359,0.00708,0.998291
12/9/2020 1:20:25.505000000 PM,0.067871,0.010742,1.005615
12/9/2020 1:20:25.518000000 PM,0.069092,0.013672,1.002441
12/9/2020 1:20:25.529000000 PM,0.071533,0.009033,0.998291
12/9/2020 1:20:25.539000000 PM,0.069824,0.008301,0.993652
12/9/2020 1:20:25.550000000 PM,0.070312,0.00708,1.003418
12/9/2020 1:20:25.561000000 PM,0.069336,0.012207,0.996094
12/9/2020 1:20:25.573000000 PM,0.065918,0.011475,1.011719
12/9/2020 1:20:25.585000000 PM,0.067627,0.008301,0.998535
12/9/2020 1:20:25.596000000 PM,0.072266,0.010986,0.993408
12/9/2020 1:20:25.606000000 PM,0.069336,0.013184,1.003174
12/9/2020 1:20:25.617000000 PM,0.071289,0.011963,1.000488
12/9/2020 1:20:25.632000000 PM,0.072754,0.01123,0.996582
12/9/2020 1:20:25.639000000 PM,0.068604,0.010498,0.997803
12/9/2020 1:20:25.651000000 PM,0.071289,0.013184,1.004395
12/9/2020 1:20:25.661000000 PM,0.07373,0.010498,1.000977
12/9/2020 1:20:25.676000000 PM,0.070801,0.008789,1.005371
12/9/2020 1:20:25.684000000 PM,0.071533,0.008789,1.009033
12/9/2020 1:20:25.697000000 PM,0.066162,0.010986,0.999023
12/9/2020 1:20:25.707000000 PM,0.070801,0.012695,1.005859
12/9/2020 1:20:25.718000000 PM,0.06665,0.009766,1.006836
12/9/2020 1:20:25.734000000 PM,0.069824,0.007812,0.996582
12/9/2020 1:20:25.742000000 PM,0.069824,0.009521,0.99707
12/9/2020 1:20:25.752000000 PM,0.073975,0.010742,0.999756
12/9/2020 1:20:25.764000000 PM,0.068848,0.005615,0.998779
12/9/2020 1:20:25.776000000 PM,0.072266,0.011963,1.003418
12/9/2020 1:20:25.788000000 PM,0.068848,0.010254,1.000244
12/9/2020 1:20:25.797000000 PM,0.069824,0.012207,0.999023
12/9/2020 1:20:25.809000000 PM,0.069336,0.008789,0.996826
12/9/2020 1:20:25.821000000 PM,0.070801,0.010986,1
12/9/2020 1:20:25.829000000 PM,0.069336,0.012207,1.000732
12/9/2020 1:20:25.839000000 PM,0.070312,0.012939,1.006836
12/9/2020 1:20:25.846000000 PM,0.067139,0.009521,1.002197
12/9/2020 1:20:25.853000000 PM,0.068359,0.011963,0.997803
12/9/2020 1:20:25.863000000 PM,0.06958,0.008301,1.00293
12/9/2020 1:20:25.875000000 PM,0.073975,0.011475,0.996582
12/9/2020 1:20:25.898000000 PM,0.068604,0.014893,1.005371
12/9/2020 1:20:25.906000000 PM,0.065674,0.013428,1.003662
12/9/2020 1:20:25.916000000 PM,0.067627,0.012695,0.999756
12/9/2020 1:20:25.927000000 PM,0.067383,0.006104,1.002197
12/9/2020 1:20:25.934000000 PM,0.070557,0.009277,1.003174
12/9/2020 1:20:25.943000000 PM,0.064209,0.009277,1.001709
12/9/2020 1:20:25.959000000 PM,0.07251,0.01001,0.99292
12/9/2020 1:20:25.969000000 PM,0.070801,0.012695,1
12/9/2020 1:20:25.987000000 PM,0.069336,0.01001,0.997314
12/9/2020 1:20:25.995000000 PM,0.067871,0.013428,1.003174
12/9/2020 1:20:26.013000000 PM,0.068115,0.012207,1.00708
12/9/2020 1:20:26.021000000 PM,0.067383,0.009766,1.002441
12/9/2020 1:20:26.037000000 PM,0.070312,0.011719,1.005615
12/9/2020 1:20:26.045000000 PM,0.071289,0.009277,1.005371
12/9/2020 1:20:26.057000000 PM,0.06958,0.01123,0.998535
12/9/2020 1:20:26.067000000 PM,0.068848,0.01123,0.999268
12/9/2020 1:20:26.078000000 PM,0.070068,0.012939,1
12/9/2020 1:20:26.088000000 PM,0.072998,0.009766,1.000977
12/9/2020 1:20:26.098000000 PM,0.070801,0.011475,1.004883
12/9/2020 1:20:26.108000000 PM,0.072266,0.010986,1.00293
12/9/2020 1:20:26.119000000 PM,0.07251,0.010742,1.004639
12/9/2020 1:20:26.130000000 PM,0.073975,0.011963,1.002197
12/9/2020 1:20:26.142000000 PM,0.070068,0.011475,1.003418
12/9/2020 1:20:26.151000000 PM,0.070801,0.013916,0.996582
12/9/2020 1:20:26.162000000 PM,0.069092,0.010498,1.001465
12/9/2020 1:20:26.171000000 PM,0.066895,0.013184,0.997314
12/9/2020 1:20:26.182000000 PM,0.069092,0.012207,1.002197
12/9/2020 1:20:26.191000000 PM,0.070312,0.009521,1.002686
12/9/2020 1:20:26.202000000 PM,0.067627,0.012695,0.998535
12/9/2020 1:20:26.215000000 PM,0.072021,0.009033,0.994873
12/9/2020 1:20:26.229000000 PM,0.072754,0.006836,0.997314
12/9/2020 1:20:26.238000000 PM,0.068604,0.013428,1.001709
12/9/2020 1:20:26.248000000 PM,0.069092,0.01001,1.001221
12/9/2020 1:20:26.270000000 PM,0.073486,0.01001,1.001953
12/9/2020 1:20:26.278000000 PM,0.072021,0.011475,0.998779
12/9/2020 1:20:26.287000000 PM,0.069092,0.010742,0.999023
12/9/2020 1:20:26.303000000 PM,0.072998,0.012939,1.002686
12/9/2020 1:20:26.311000000 PM,0.068604,0.012207,0.999512
12/9/2020 1:20:26.321000000 PM,0.070312,0.010498,0.996338
12/9/2020 1:20:26.332000000 PM,0.067139,0.01123,1.003174
12/9/2020 1:20:26.342000000 PM,0.07251,0.010742,1.000732
12/9/2020 1:20:26.357000000 PM,0.071289,0.01123,0.997559
12/9/2020 1:20:26.365000000 PM,0.072754,0.01123,0.998535
12/9/2020 1:20:26.375000000 PM,0.070557,0.003906,1.003174
12/9/2020 1:20:26.386000000 PM,0.071777,0.012451,0.996094
12/9/2020 1:20:26.396000000 PM,0.069092,0.008545,1.001465
12/9/2020 1:20:26.406000000 PM,0.06958,0.01123,1.00293
12/9/2020 1:20:26.416000000 PM,0.071289,0.009033,1.004639
12/9/2020 1:20:26.427000000 PM,0.071533,0.012939,1.00293
12/9/2020 1:20:26.443000000 PM,0.070557,0.009766,0.997803
12/9/2020 1:20:26.451000000 PM,0.066895,0.012939,1.001221
12/9/2020 1:20:26.463000000 PM,0.06665,0.008545,0.998291
12/9/2020 1:20:26.474000000 PM,0.071045,0.011963,1.000488
12/9/2020 1:20:26.486000000 PM,0.068604,0.012939,1.003418
12/9/2020 1:20:26.496000000 PM,0.066162,0.010986,1.001953
12/9/2020 1:20:26.511000000 PM,0.068359,0.012207,0.994141
12/9/2020 1:20:26.519000000 PM,0.067871,0.006348,1.003418
12/9/2020 1:20:26.530000000 PM,0.069092,0.01001,0.996826
12/9/2020 1:20:26.543000000 PM,0.069092,0.01123,1.001221
12/9/2020 1:20:26.553000000 PM,0.06958,0.011719,1.005859
12/9/2020 1:20:26.566000000 PM,0.070557,0.008789,1.011475
12/9/2020 1:20:26.577000000 PM,0.070068,0.011475,1.006348
12/9/2020 1:20:26.588000000 PM,0.071533,0.010986,0.996826
12/9/2020 1:20:26.598000000 PM,0.065186,0.01123,1.000488
12/9/2020 1:20:26.608000000 PM,0.070312,0.011719,1.007324
12/9/2020 1:20:26.620000000 PM,0.070068,0.009766,1.003418
12/9/2020 1:20:26.630000000 PM,0.067139,0.007568,0.996338
12/9/2020 1:20:26.642000000 PM,0.071289,0.010254,1.004883
12/9/2020 1:20:26.652000000 PM,0.06958,0.008057,0.999756
12/9/2020 1:20:26.667000000 PM,0.068115,0.01123,0.994141
12/9/2020 1:20:26.675000000 PM,0.06958,0.01001,0.998779
12/9/2020 1:20:26.688000000 PM,0.070312,0.012695,1.00293
12/9/2020 1:20:26.697000000 PM,0.070801,0.006836,0.997559
12/9/2020 1:20:26.709000000 PM,0.072754,0.01001,1.002441
12/9/2020 1:20:26.724000000 PM,0.070312,0.010986,1.001709
12/9/2020 1:20:26.732000000 PM,0.071045,0.01123,0.994873
12/9/2020 1:20:26.745000000 PM,0.072021,0.011719,0.999756
12/9/2020 1:20:26.755000000 PM,0.070312,0.012207,1.006592
12/9/2020 1:20:26.768000000 PM,0.06958,0.009277,1.005859
12/9/2020 1:20:26.781000000 PM,0.07373,0.008789,0.997314
12/9/2020 1:20:26.790000000 PM,0.068604,0.008301,1.008057
12/9/2020 1:20:26.800000000 PM,0.070801,0.014404,1.005859
12/9/2020 1:20:26.811000000 PM,0.070312,0.007812,1.003662
12/9/2020 1:20:26.823000000 PM,0.06958,0.009521,0.997314
12/9/2020 1:20:26.833000000 PM,0.066406,0.01123,1.002197
12/9/2020 1:20:26.845000000 PM,0.069336,0.009277,1.000244
12/9/2020 1:20:26.853000000 PM,0.068604,0.01123,1.003906
12/9/2020 1:20:26.864000000 PM,0.066162,0.007812,0.999512
12/9/2020 1:20:26.874000000 PM,0.068848,0.013184,0.999512
12/9/2020 1:20:26.891000000 PM,0.068359,0.009033,1.003906
12/9/2020 1:20:26.899000000 PM,0.067139,0.009521,1
12/9/2020 1:20:26.910000000 PM,0.068604,0.009521,1.001709
12/9/2020 1:20:26.920000000 PM,0.073242,0.009766,0.997803
12/9/2020 1:20:26.936000000 PM,0.073242,0.00708,0.993408
12/9/2020 1:20:26.944000000 PM,0.066406,0.014648,0.997559
12/9/2020 1:20:26.955000000 PM,0.068848,0.010986,1.002441
12/9/2020 1:20:26.965000000 PM,0.067871,0.010742,1.006348
12/9/2020 1:20:26.977000000 PM,0.067871,0.011963,1.002686
12/9/2020 1:20:26.992000000 PM,0.069824,0.008301,1.005371
12/9/2020 1:20:27.000000000 PM,0.067627,0.011963,1.002686
12/9/2020 1:20:27.016000000 PM,0.071777,0.009521,0.995361
12/9/2020 1:20:27.024000000 PM,0.068115,0.012451,1.001953
12/9/2020 1:20:27.035000000 PM,0.070557,0.006836,0.99707
12/9/2020 1:20:27.045000000 PM,0.070068,0.010986,0.997314
12/9/2020 1:20:27.058000000 PM,0.071289,0.014404,1.003662
12/9/2020 1:20:27.069000000 PM,0.070068,0.011719,1.001465
12/9/2020 1:20:27.079000000 PM,0.067139,0.008057,1.001221
12/9/2020 1:20:27.092000000 PM,0.069092,0.012207,1.000732
12/9/2020 1:20:27.101000000 PM,0.067871,0.005371,1.001465
12/9/2020 1:20:27.116000000 PM,0.070312,0.007324,0.996826
12/9/2020 1:20:27.124000000 PM,0.065918,0.008057,1.005127
12/9/2020 1:20:27.140000000 PM,0.067139,0.008057,1.003418
12/9/2020 1:20:27.147000000 PM,0.069336,0.012207,1.005615
12/9/2020 1:20:27.155000000 PM,0.072266,0.006348,1.005615
12/9/2020 1:20:27.177000000 PM,0.064453,0.008057,0.996582
12/9/2020 1:20:27.184000000 PM,0.069092,0.010254,1.000732
12/9/2020 1:20:27.195000000 PM,0.071289,0.009766,1.000244
12/9/2020 1:20:27.203000000 PM,0.068848,0.009521,1.003418
12/9/2020 1:20:27.224000000 PM,0.070801,0.011963,0.993408
12/9/2020 1:20:27.232000000 PM,0.072754,0.01001,0.999512
12/9/2020 1:20:27.242000000 PM,0.070801,0.01123,1.008789
12/9/2020 1:20:27.250000000 PM,0.071289,0.010254,0.993896
12/9/2020 1:20:27.268000000 PM,0.071045,0.010986,1.006348
12/9/2020 1:20:27.276000000 PM,0.070557,0.010986,0.999023
12/9/2020 1:20:27.289000000 PM,0.068604,0.010986,0.996582
12/9/2020 1:20:27.300000000 PM,0.068848,0.01416,0.998779
12/9/2020 1:20:27.311000000 PM,0.068115,0.009521,1.000244
12/9/2020 1:20:27.324000000 PM,0.070312,0.011963,1.005371
12/9/2020 1:20:27.334000000 PM,0.068604,0.009277,1.006592
12/9/2020 1:20:27.344000000 PM,0.070801,0.008301,0.99707
12/9/2020 1:20:27.353000000 PM,0.069824,0.008301,0.998047
12/9/2020 1:20:27.367000000 PM,0.071045,0.011719,1.001953
12/9/2020 1:20:27.379000000 PM,0.070312,0.008301,0.998779
12/9/2020 1:20:27.389000000 PM,0.06958,0.010254,0.991455
12/9/2020 1:20:27.399000000 PM,0.071777,0.012207,1.000488
12/9/2020 1:20:27.409000000 PM,0.073242,0.011963,1.004883
12/9/2020 1:20:27.419000000 PM,0.074219,0.009277,1.002686
12/9/2020 1:20:27.429000000 PM,0.068848,0.013916,0.99707
12/9/2020 1:20:27.445000000 PM,0.075439,0.005859,1.002197
12/9/2020 1:20:27.453000000 PM,0.064453,0.009277,1
12/9/2020 1:20:27.466000000 PM,0.072021,0.009033,0.999512
12/9/2020 1:20:27.475000000 PM,0.068604,0.009521,0.999023
12/9/2020 1:20:27.485000000 PM,0.066895,0.009033,1.00415
12/9/2020 1:20:27.493000000 PM,0.069336,0.009033,1.000732
12/9/2020 1:20:27.509000000 PM,0.068848,0.011719,0.998291
12/9/2020 1:20:27.516000000 PM,0.066406,0.00708,0.999023
12/9/2020 1:20:27.531000000 PM,0.067139,0.010742,1.003906
12/9/2020 1:20:27.539000000 PM,0.067627,0.010498,1.006836
12/9/2020 1:20:27.550000000 PM,0.069092,0.011719,1.001465
12/9/2020 1:20:27.562000000 PM,0.067871,0.009766,0.994873
12/9/2020 1:20:27.570000000 PM,0.073242,0.011963,1.002197
12/9/2020 1:20:27.581000000 PM,0.072021,0.008545,1.002686
12/9/2020 1:20:27.591000000 PM,0.071533,0.010742,0.999756
12/9/2020 1:20:27.602000000 PM,0.068115,0.01001,1.003418
12/9/2020 1:20:27.612000000 PM,0.069092,0.010498,1.00708
12/9/2020 1:20:27.622000000 PM,0.070068,0.01123,0.992188
12/9/2020 1:20:27.633000000 PM,0.06958,0.012207,1.004639
12/9/2020 1:20:27.645000000 PM,0.067139,0.013184,1.00415
12/9/2020 1:20:27.654000000 PM,0.071533,0.01001,1.005615
12/9/2020 1:20:27.665000000 PM,0.070312,0.013672,1.003418
12/9/2020 1:20:27.675000000 PM,0.067139,0.008057,0.997803
12/9/2020 1:20:27.687000000 PM,0.070312,0.007324,1.002441
12/9/2020 1:20:27.697000000 PM,0.068848,0.009277,1.000244
12/9/2020 1:20:27.707000000 PM,0.075684,0.007812,1.001953
12/9/2020 1:20:27.719000000 PM,0.077637,0.009033,1.00293
12/9/2020 1:20:27.734000000 PM,0.069336,0.012695,1.002197
12/9/2020 1:20:27.742000000 PM,0.070801,0.008789,0.998535
12/9/2020 1:20:27.752000000 PM,0.069092,0.009277,0.997559
12/9/2020 1:20:27.764000000 PM,0.06665,0.008789,1.000488
12/9/2020 1:20:27.781000000 PM,0.066895,0.009521,0.997559
12/9/2020 1:20:27.789000000 PM,0.068604,0.010742,0.997803
12/9/2020 1:20:27.805000000 PM,0.068848,0.011719,1.003662
12/9/2020 1:20:27.813000000 PM,0.06958,0.008301,1.001221
12/9/2020 1:20:27.824000000 PM,0.071533,0.012451,0.990479
12/9/2020 1:20:27.835000000 PM,0.06958,0.013184,1.006104
12/9/2020 1:20:27.845000000 PM,0.071777,0.016846,0.994385
12/9/2020 1:20:27.855000000 PM,0.071777,0.009521,1.005127
12/9/2020 1:20:27.864000000 PM,0.068604,0.011963,1.001465
12/9/2020 1:20:27.877000000 PM,0.068359,0.009521,0.993164
12/9/2020 1:20:27.887000000 PM,0.071045,0.005615,1.000732
12/9/2020 1:20:27.898000000 PM,0.067871,0.012451,0.996582
12/9/2020 1:20:27.910000000 PM,0.073242,0.012939,1.000732
12/9/2020 1:20:27.920000000 PM,0.067139,0.007812,0.990967
12/9/2020 1:20:27.929000000 PM,0.072021,0.012207,1.005127
12/9/2020 1:20:27.940000000 PM,0.071045,0.012695,1.005615
12/9/2020 1:20:27.951000000 PM,0.06958,0.010254,1.000488
12/9/2020 1:20:27.960000000 PM,0.069092,0.006348,0.999512
12/9/2020 1:20:27.971000000 PM,0.06958,0.014648,1.010742
12/9/2020 1:20:27.982000000 PM,0.066895,0.012451,0.996094
12/9/2020 1:20:27.994000000 PM,0.065918,0.011719,1.000488
12/9/2020 1:20:28.009000000 PM,0.070557,0.010498,0.999512
12/9/2020 1:20:28.017000000 PM,0.072266,0.007324,1.001221
12/9/2020 1:20:28.027000000 PM,0.07251,0.012451,0.998291
12/9/2020 1:20:28.039000000 PM,0.068359,0.011475,0.997314
12/9/2020 1:20:28.050000000 PM,0.072266,0.006592,0.998535
12/9/2020 1:20:28.060000000 PM,0.069336,0.01123,1.001709
12/9/2020 1:20:28.069000000 PM,0.068359,0.00708,1.005615
12/9/2020 1:20:28.082000000 PM,0.069092,0.009766,1.001221
12/9/2020 1:20:28.092000000 PM,0.070801,0.009521,1.003906
12/9/2020 1:20:28.101000000 PM,0.066895,0.010986,1.001221
12/9/2020 1:20:28.117000000 PM,0.06958,0.012939,0.99707
12/9/2020 1:20:28.125000000 PM,0.068848,0.008301,1.006348
12/9/2020 1:20:28.134000000 PM,0.064697,0.013428,0.999023
12/9/2020 1:20:28.146000000 PM,0.069092,0.010742,1.001221
12/9/2020 1:20:28.156000000 PM,0.072266,0.008301,0.999023
12/9/2020 1:20:28.170000000 PM,0.069092,0.009766,1.002441
12/9/2020 1:20:28.179000000 PM,0.066895,0.005127,1.003662
12/9/2020 1:20:28.191000000 PM,0.074707,0.013672,1.001953
12/9/2020 1:20:28.201000000 PM,0.071289,0.011963,1.001465
12/9/2020 1:20:28.212000000 PM,0.068115,0.010254,0.997803
12/9/2020 1:20:28.223000000 PM,0.068604,0.009521,1.002686
12/9/2020 1:20:28.233000000 PM,0.067139,0.009521,1.003174
12/9/2020 1:20:28.244000000 PM,0.069092,0.011963,1.000732
12/9/2020 1:20:28.254000000 PM,0.071045,0.009521,1.002197
12/9/2020 1:20:28.264000000 PM,0.067139,0.007324,1.000977
12/9/2020 1:20:28.274000000 PM,0.068359,0.011963,1.005127
12/9/2020 1:20:28.289000000 PM,0.064941,0.008545,1.003906
12/9/2020 1:20:28.297000000 PM,0.071289,0.011475,0.999756
12/9/2020 1:20:28.307000000 PM,0.069336,0.009766,1.007812
12/9/2020 1:20:28.319000000 PM,0.071045,0.010742,1.004639
12/9/2020 1:20:28.331000000 PM,0.06665,0.009521,0.999512
12/9/2020 1:20:28.341000000 PM,0.071045,0.010254,1.000488
12/9/2020 1:20:28.352000000 PM,0.070068,0.010742,0.997559
12/9/2020 1:20:28.364000000 PM,0.06958,0.010498,1.006836
12/9/2020 1:20:28.374000000 PM,0.072021,0.011475,1.003662
12/9/2020 1:20:28.389000000 PM,0.067871,0.009521,0.997559
12/9/2020 1:20:28.397000000 PM,0.068115,0.013428,1.004639
12/9/2020 1:20:28.407000000 PM,0.074463,0.009277,1.002686
12/9/2020 1:20:28.417000000 PM,0.072998,0.007568,1.010498
12/9/2020 1:20:28.427000000 PM,0.068115,0.011963,0.999268
12/9/2020 1:20:28.437000000 PM,0.067383,0.01001,0.996826
12/9/2020 1:20:28.449000000 PM,0.067383,0.011719,1.002686
12/9/2020 1:20:28.459000000 PM,0.070312,0.009277,0.99707
12/9/2020 1:20:28.469000000 PM,0.067871,0.009033,0.999023
12/9/2020 1:20:28.479000000 PM,0.070312,0.005859,1.000244
12/9/2020 1:20:28.491000000 PM,0.075195,0.011475,0.997803
12/9/2020 1:20:28.501000000 PM,0.073975,0.008301,1.003174
12/9/2020 1:20:28.516000000 PM,0.068115,0.011963,1.005859
12/9/2020 1:20:28.524000000 PM,0.072021,0.014404,1.006592
12/9/2020 1:20:28.541000000 PM,0.069824,0.010986,0.994629
12/9/2020 1:20:28.548000000 PM,0.066895,0.010254,0.994873
12/9/2020 1:20:28.558000000 PM,0.07251,0.014404,1.000977
12/9/2020 1:20:28.574000000 PM,0.070801,0.009033,1.004883
12/9/2020 1:20:28.581000000 PM,0.069824,0.012695,1.004395
12/9/2020 1:20:28.598000000 PM,0.072754,0.008301,0.997803
12/9/2020 1:20:28.605000000 PM,0.070801,0.007324,0.998291
12/9/2020 1:20:28.617000000 PM,0.068115,0.010986,1.001465
12/9/2020 1:20:28.628000000 PM,0.071289,0.014648,0.999268
12/9/2020 1:20:28.637000000 PM,0.07251,0.01001,1.00293
12/9/2020 1:20:28.647000000 PM,0.071045,0.008789,1.000977
12/9/2020 1:20:28.658000000 PM,0.070312,0.012939,1.007324
12/9/2020 1:20:28.668000000 PM,0.070312,0.013184,0.999023
12/9/2020 1:20:28.678000000 PM,0.071045,0.00708,1.000244
12/9/2020 1:20:28.689000000 PM,0.069336,0.011963,0.999023
12/9/2020 1:20:28.699000000 PM,0.070557,0.014404,1.00415
12/9/2020 1:20:28.710000000 PM,0.072021,0.01123,0.998535
12/9/2020 1:20:28.722000000 PM,0.066406,0.011963,1.002686
12/9/2020 1:20:28.732000000 PM,0.072998,0.013428,0.996826
12/9/2020 1:20:28.742000000 PM,0.068359,0.012451,1.004883
12/9/2020 1:20:28.752000000 PM,0.068115,0.006836,1.001953
12/9/2020 1:20:28.768000000 PM,0.073242,0.009033,0.998535
12/9/2020 1:20:28.779000000 PM,0.072021,0.009277,1.001465
12/9/2020 1:20:28.789000000 PM,0.070557,0.009033,1.003662
12/9/2020 1:20:28.802000000 PM,0.069092,0.010986,1.000488
12/9/2020 1:20:28.811000000 PM,0.073242,0.012451,1.009277
12/9/2020 1:20:28.820000000 PM,0.070801,0.009277,1.005127
12/9/2020 1:20:28.832000000 PM,0.073975,0.003662,0.999268
12/9/2020 1:20:28.842000000 PM,0.063721,0.008545,0.997314
12/9/2020 1:20:28.851000000 PM,0.073242,0.011475,1.001465
12/9/2020 1:20:28.863000000 PM,0.069336,0.011963,1.001953
12/9/2020 1:20:28.873000000 PM,0.06958,0.011719,0.996826
12/9/2020 1:20:28.883000000 PM,0.066162,0.01001,1.009033
12/9/2020 1:20:28.893000000 PM,0.073486,0.009521,0.997314
12/9/2020 1:20:28.904000000 PM,0.076416,0.012695,1.002441
12/9/2020 1:20:28.915000000 PM,0.069336,0.010498,1.002197
12/9/2020 1:20:28.924000000 PM,0.070312,0.01416,1
12/9/2020 1:20:28.935000000 PM,0.067139,0.009766,1.003174
12/9/2020 1:20:28.944000000 PM,0.066406,0.009277,1.003906
12/9/2020 1:20:28.954000000 PM,0.068848,0.010498,1.006104
12/9/2020 1:20:28.965000000 PM,0.067627,0.010742,0.996582
12/9/2020 1:20:28.976000000 PM,0.069824,0.012939,0.999756
12/9/2020 1:20:28.986000000 PM,0.074707,0.009521,1.001221
12/9/2020 1:20:28.999000000 PM,0.070801,0.012939,1.003662
12/9/2020 1:20:29.013000000 PM,0.07373,0.008057,0.996826
12/9/2020 1:20:29.023000000 PM,0.068604,0.007812,1.006836
12/9/2020 1:20:29.034000000 PM,0.072266,0.010742,0.996094
12/9/2020 1:20:29.043000000 PM,0.070068,0.005859,1.001221
12/9/2020 1:20:29.053000000 PM,0.067627,0.012939,1.00415
12/9/2020 1:20:29.063000000 PM,0.06958,0.013916,0.99707
12/9/2020 1:20:29.073000000 PM,0.071045,0.011963,1.005127
12/9/2020 1:20:29.083000000 PM,0.068604,0.008789,1.001221
12/9/2020 1:20:29.093000000 PM,0.070312,0.011963,1.003174
12/9/2020 1:20:29.109000000 PM,0.069092,0.008789,1.001709
12/9/2020 1:20:29.116000000 PM,0.066895,0.010498,0.997559
12/9/2020 1:20:29.128000000 PM,0.070312,0.006836,0.994629
12/9/2020 1:20:29.139000000 PM,0.071777,0.010742,1
12/9/2020 1:20:29.149000000 PM,0.070312,0.006348,1.003418
12/9/2020 1:20:29.159000000 PM,0.070557,0.009766,1.000488
12/9/2020 1:20:29.170000000 PM,0.069824,0.006836,1
12/9/2020 1:20:29.186000000 PM,0.07251,0.010498,1.000977
12/9/2020 1:20:29.194000000 PM,0.069092,0.013428,0.999268
12/9/2020 1:20:29.211000000 PM,0.065674,0.006348,0.996826
12/9/2020 1:20:29.219000000 PM,0.068359,0.012939,1
12/9/2020 1:20:29.229000000 PM,0.070557,0.012695,0.99707
12/9/2020 1:20:29.240000000 PM,0.072754,0.010986,1.00293
12/9/2020 1:20:29.250000000 PM,0.073242,0.010498,1.001709
12/9/2020 1:20:29.263000000 PM,0.072754,0.009521,1.004395
12/9/2020 1:20:29.273000000 PM,0.072754,0.008057,0.998779
12/9/2020 1:20:29.288000000 PM,0.06958,0.01001,1.002686
12/9/2020 1:20:29.295000000 PM,0.07373,0.007568,1.001953
12/9/2020 1:20:29.311000000 PM,0.070557,0.008545,0.998291
12/9/2020 1:20:29.319000000 PM,0.068359,0.008301,1
12/9/2020 1:20:29.329000000 PM,0.071777,0.008057,1.002441
12/9/2020 1:20:29.339000000 PM,0.070068,0.011719,0.993652
12/9/2020 1:20:29.350000000 PM,0.068359,0.009766,0.998291
12/9/2020 1:20:29.359000000 PM,0.067139,0.012207,1.00293
12/9/2020 1:20:29.371000000 PM,0.069824,0.008545,1.004883
12/9/2020 1:20:29.381000000 PM,0.068848,0.008057,1.006104
12/9/2020 1:20:29.390000000 PM,0.067139,0.007568,1.003174
12/9/2020 1:20:29.400000000 PM,0.070068,0.011719,1.000977
12/9/2020 1:20:29.413000000 PM,0.072266,0.008301,0.995361
12/9/2020 1:20:29.422000000 PM,0.067627,0.010742,1.008301
12/9/2020 1:20:29.432000000 PM,0.069824,0.010498,0.993164
12/9/2020 1:20:29.442000000 PM,0.06958,0.009033,1.003418
12/9/2020 1:20:29.453000000 PM,0.068848,0.008057,0.99707
12/9/2020 1:20:29.463000000 PM,0.071777,0.008545,0.993896
12/9/2020 1:20:29.473000000 PM,0.068359,0.010986,0.997314
12/9/2020 1:20:29.483000000 PM,0.070312,0.01123,1.000732
12/9/2020 1:20:29.493000000 PM,0.072754,0.010742,1.003418
12/9/2020 1:20:29.500000000 PM,0.071045,0.012207,1.003662
12/9/2020 1:20:29.512000000 PM,0.067627,0.012451,0.999023
12/9/2020 1:20:29.520000000 PM,0.069824,0.009521,1.012939
12/9/2020 1:20:29.531000000 PM,0.068604,0.010498,1.003174
12/9/2020 1:20:29.543000000 PM,0.069092,0.009766,0.996582
12/9/2020 1:20:29.553000000 PM,0.070801,0.011719,1.003906
12/9/2020 1:20:29.563000000 PM,0.069336,0.008301,1.001465
12/9/2020 1:20:29.574000000 PM,0.068604,0.013184,1.000977
12/9/2020 1:20:29.586000000 PM,0.071533,0.009033,1.00415
12/9/2020 1:20:29.596000000 PM,0.070312,0.007568,1.001465
12/9/2020 1:20:29.606000000 PM,0.069824,0.010254,0.998047
12/9/2020 1:20:29.618000000 PM,0.07251,0.005859,1.006104
12/9/2020 1:20:29.628000000 PM,0.070312,0.011475,1.005371
12/9/2020 1:20:29.638000000 PM,0.067383,0.008301,1.000732
12/9/2020 1:20:29.650000000 PM,0.070068,0.010986,1.002197
12/9/2020 1:20:29.659000000 PM,0.074463,0.008545,1.003418
12/9/2020 1:20:29.669000000 PM,0.069092,0.009766,1.00415
12/9/2020 1:20:29.680000000 PM,0.067871,0.011475,1.005371
12/9/2020 1:20:29.692000000 PM,0.074463,0.011475,0.999268
12/9/2020 1:20:29.713000000 PM,0.06958,0.009033,1.009033
12/9/2020 1:20:29.721000000 PM,0.068604,0.011475,0.999512
12/9/2020 1:20:29.736000000 PM,0.068848,0.010742,0.998779
12/9/2020 1:20:29.743000000 PM,0.072266,0.008301,1.000488
12/9/2020 1:20:29.755000000 PM,0.070557,0.010986,0.996338
12/9/2020 1:20:29.766000000 PM,0.070068,0.009521,1.007812
12/9/2020 1:20:29.776000000 PM,0.070557,0.006836,1.003906
12/9/2020 1:20:29.786000000 PM,0.068848,0.013916,0.993164
12/9/2020 1:20:29.801000000 PM,0.067871,0.011475,1.003906
12/9/2020 1:20:29.809000000 PM,0.070068,0.012207,1.003418
12/9/2020 1:20:29.817000000 PM,0.070312,0.01123,1.002197
12/9/2020 1:20:29.837000000 PM,0.068604,0.012451,1.003174
12/9/2020 1:20:29.845000000 PM,0.072021,0.015869,1.003174
12/9/2020 1:20:29.853000000 PM,0.072266,0.008545,1.004395
12/9/2020 1:20:29.863000000 PM,0.067383,0.008545,1.001709
12/9/2020 1:20:29.875000000 PM,0.069824,0.012451,1.000244
12/9/2020 1:20:29.883000000 PM,0.069336,0.011963,1.00293
12/9/2020 1:20:29.893000000 PM,0.073242,0.006592,1.003906
12/9/2020 1:20:29.903000000 PM,0.069336,0.010742,1.000244
12/9/2020 1:20:29.913000000 PM,0.069336,0.012695,1.002441
12/9/2020 1:20:29.926000000 PM,0.06665,0.008789,0.995361
12/9/2020 1:20:29.933000000 PM,0.069824,0.010254,1.002686
12/9/2020 1:20:29.943000000 PM,0.068359,0.011963,1.003662
12/9/2020 1:20:29.953000000 PM,0.070801,0.012451,0.997803
12/9/2020 1:20:29.984000000 PM,0.070557,0.013184,1.000244
12/9/2020 1:20:29.991000000 PM,0.070801,0.006104,1.003418
12/9/2020 1:20:29.998000000 PM,0.068359,0.003418,1.006592
12/9/2020 1:20:30.020000000 PM,0.072754,0.011475,1.002197
12/9/2020 1:20:30.027000000 PM,0.069336,0.01001,0.999756
12/9/2020 1:20:30.033000000 PM,0.068115,0.00293,1.003174
12/9/2020 1:20:30.043000000 PM,0.064941,0.008545,1.004883
12/9/2020 1:20:30.053000000 PM,0.07251,0.013184,1.000977
12/9/2020 1:20:30.063000000 PM,0.067627,0.013916,1.003906
12/9/2020 1:20:30.073000000 PM,0.070068,0.013672,0.999023
12/9/2020 1:20:30.083000000 PM,0.06958,0.006104,1.005371
12/9/2020 1:20:30.093000000 PM,0.069336,0.013428,1.002197
12/9/2020 1:20:30.103000000 PM,0.07251,0.006104,1.001709
12/9/2020 1:20:30.113000000 PM,0.070068,0.012939,0.997803
12/9/2020 1:20:30.123000000 PM,0.072998,0.010498,1.002197
12/9/2020 1:20:30.133000000 PM,0.074707,0.01123,1.006592
12/9/2020 1:20:30.143000000 PM,0.068359,0.009521,1.002197
12/9/2020 1:20:30.163000000 PM,0.073242,0.016113,1.005859
12/9/2020 1:20:30.174000000 PM,0.068604,0.008301,1.00415
12/9/2020 1:20:30.230000000 PM,0.069092,0.006836,0.996826
12/9/2020 1:20:30.239000000 PM,0.069336,0.010254,0.996826
12/9/2020 1:20:30.256000000 PM,0.070801,0.009521,1.003906
12/9/2020 1:20:30.265000000 PM,0.069092,0.01123,1.005127
12/9/2020 1:20:30.276000000 PM,0.06665,0.01123,1.005127
12/9/2020 1:20:30.285000000 PM,0.066895,0.011719,1.005615
12/9/2020 1:20:30.297000000 PM,0.071289,0.012451,1.008789
12/9/2020 1:20:30.314000000 PM,0.068848,0.012451,0.99585
12/9/2020 1:20:30.322000000 PM,0.069336,0.012939,0.998291
12/9/2020 1:20:30.334000000 PM,0.068359,0.009766,1.004639
12/9/2020 1:20:30.344000000 PM,0.068848,0.010986,1.003662
12/9/2020 1:20:30.354000000 PM,0.066895,0.008545,1.007324
12/9/2020 1:20:30.364000000 PM,0.069092,0.009277,1.002197
12/9/2020 1:20:30.374000000 PM,0.069336,0.010742,1
12/9/2020 1:20:30.385000000 PM,0.070068,0.012451,0.99707
12/9/2020 1:20:30.395000000 PM,0.070801,0.009521,0.993896
12/9/2020 1:20:30.405000000 PM,0.067383,0.011475,1.010498
12/9/2020 1:20:30.415000000 PM,0.065918,0.009766,1.009766
12/9/2020 1:20:30.428000000 PM,0.069092,0.009033,1.000977
12/9/2020 1:20:30.439000000 PM,0.069092,0.016602,1.002686
12/9/2020 1:20:30.454000000 PM,0.071289,0.010498,0.997559
12/9/2020 1:20:30.462000000 PM,0.068848,0.010498,1.002197
12/9/2020 1:20:30.472000000 PM,0.070312,0.008057,1.005127
12/9/2020 1:20:30.485000000 PM,0.069336,0.011475,1.002441
12/9/2020 1:20:30.494000000 PM,0.068848,0.01001,1.003174
12/9/2020 1:20:30.506000000 PM,0.070312,0.010986,0.996582
12/9/2020 1:20:30.516000000 PM,0.067871,0.01001,0.995361
12/9/2020 1:20:30.527000000 PM,0.066895,0.010498,1.005127
12/9/2020 1:20:30.540000000 PM,0.068604,0.009033,1.002197
12/9/2020 1:20:30.550000000 PM,0.071289,0.01416,1.001221
12/9/2020 1:20:30.560000000 PM,0.066406,0.010254,1.00415
12/9/2020 1:20:30.571000000 PM,0.073486,0.010986,1
12/9/2020 1:20:30.581000000 PM,0.069336,0.008545,0.998535
12/9/2020 1:20:30.592000000 PM,0.069092,0.01001,1.000488
12/9/2020 1:20:30.601000000 PM,0.067627,0.006836,1.002197
12/9/2020 1:20:30.612000000 PM,0.074463,0.015137,0.99585
12/9/2020 1:20:30.624000000 PM,0.069336,0.013672,0.99707
12/9/2020 1:20:30.635000000 PM,0.071045,0.01001,0.999023
12/9/2020 1:20:30.652000000 PM,0.064941,0.010742,0.997314
12/9/2020 1:20:30.660000000 PM,0.074707,0.008789,0.996582
12/9/2020 1:20:30.670000000 PM,0.06958,0.006592,0.995117
12/9/2020 1:20:30.682000000 PM,0.070801,0.006836,0.996826
12/9/2020 1:20:30.692000000 PM,0.072021,0.013184,0.996338
12/9/2020 1:20:30.707000000 PM,0.068604,0.013916,1.002686
12/9/2020 1:20:30.714000000 PM,0.072754,0.009277,1.002197
12/9/2020 1:20:30.725000000 PM,0.069824,0.013672,1.001953
12/9/2020 1:20:30.738000000 PM,0.073242,0.01001,0.999268
12/9/2020 1:20:30.753000000 PM,0.071045,0.011719,0.999512
12/9/2020 1:20:30.762000000 PM,0.064453,0.011719,0.992676
12/9/2020 1:20:30.772000000 PM,0.067383,0.012451,1.000732
12/9/2020 1:20:30.782000000 PM,0.073242,0.008789,0.999756
12/9/2020 1:20:30.794000000 PM,0.068604,0.009766,1.003418
12/9/2020 1:20:30.802000000 PM,0.072998,0.00708,1.006592
12/9/2020 1:20:30.815000000 PM,0.071045,0.006836,1.001709
12/9/2020 1:20:30.826000000 PM,0.070557,0.007568,1.001709
12/9/2020 1:20:30.837000000 PM,0.065918,0.01001,0.998779
12/9/2020 1:20:30.848000000 PM,0.068359,0.013428,1.000977
12/9/2020 1:20:30.858000000 PM,0.068604,0.012939,0.994141
12/9/2020 1:20:30.868000000 PM,0.073242,0.009766,1.002441
12/9/2020 1:20:30.879000000 PM,0.069824,0.012939,0.999268
12/9/2020 1:20:30.894000000 PM,0.067627,0.010498,1.000732
12/9/2020 1:20:30.902000000 PM,0.06958,0.01001,0.99707
12/9/2020 1:20:30.911000000 PM,0.071045,0.010254,1.001709
12/9/2020 1:20:30.922000000 PM,0.068359,0.009521,0.996094
12/9/2020 1:20:30.933000000 PM,0.069824,0.015625,1.006104
12/9/2020 1:20:30.946000000 PM,0.070557,0.008789,0.99707
12/9/2020 1:20:30.956000000 PM,0.071533,0.013672,1.002686
12/9/2020 1:20:30.969000000 PM,0.072021,0.010498,0.993408
12/9/2020 1:20:30.981000000 PM,0.066162,0.005859,0.995117
12/9/2020 1:20:30.996000000 PM,0.069824,0.009033,1.000732
12/9/2020 1:20:31.003000000 PM,0.074219,0.009033,0.990479
12/9/2020 1:20:31.014000000 PM,0.068359,0.012207,1.006592
12/9/2020 1:20:31.030000000 PM,0.068848,0.010498,1.000732
12/9/2020 1:20:31.038000000 PM,0.066406,0.017578,0.999268
12/9/2020 1:20:31.053000000 PM,0.071045,0.007324,1.001221
12/9/2020 1:20:31.061000000 PM,0.071289,0.014404,1.001221
12/9/2020 1:20:31.076000000 PM,0.072266,0.009766,1.003906
12/9/2020 1:20:31.084000000 PM,0.066162,0.01001,1.000732
12/9/2020 1:20:31.099000000 PM,0.072754,0.010254,0.998047
12/9/2020 1:20:31.107000000 PM,0.06543,0.010254,1.007568
12/9/2020 1:20:31.118000000 PM,0.06665,0.011963,0.992432
12/9/2020 1:20:31.133000000 PM,0.073242,0.010742,1.00415
12/9/2020 1:20:31.141000000 PM,0.072998,0.008789,1.003662
12/9/2020 1:20:31.157000000 PM,0.070312,0.01123,1.00708
12/9/2020 1:20:31.165000000 PM,0.068848,0.01001,0.998779
12/9/2020 1:20:31.176000000 PM,0.070557,0.012451,1.008301
12/9/2020 1:20:31.188000000 PM,0.069092,0.008789,1.001709
12/9/2020 1:20:31.198000000 PM,0.070312,0.008057,1.005859
12/9/2020 1:20:31.208000000 PM,0.072754,0.008057,1.002686
12/9/2020 1:20:31.219000000 PM,0.067139,0.011475,0.997559
12/9/2020 1:20:31.234000000 PM,0.071289,0.009277,1.000977
12/9/2020 1:20:31.242000000 PM,0.070312,0.011475,1.000977
12/9/2020 1:20:31.259000000 PM,0.071777,0.011719,0.999756
12/9/2020 1:20:31.267000000 PM,0.072021,0.011475,1.008057
12/9/2020 1:20:31.279000000 PM,0.070801,0.006592,1.002686
12/9/2020 1:20:31.290000000 PM,0.069824,0.010742,1.001709
12/9/2020 1:20:31.300000000 PM,0.069336,0.012939,0.997314
12/9/2020 1:20:31.310000000 PM,0.071533,0.013672,0.992188
12/9/2020 1:20:31.321000000 PM,0.067871,0.011475,1.000488
12/9/2020 1:20:31.330000000 PM,0.070068,0.005371,1.003906
12/9/2020 1:20:31.343000000 PM,0.069336,0.011963,1.000977
12/9/2020 1:20:31.354000000 PM,0.067871,0.009766,1.001221
12/9/2020 1:20:31.366000000 PM,0.071533,0.008545,1.001221
12/9/2020 1:20:31.382000000 PM,0.072021,0.009277,0.998291
12/9/2020 1:20:31.389000000 PM,0.069336,0.011719,1.00293
12/9/2020 1:20:31.400000000 PM,0.06665,0.008789,1.001221
12/9/2020 1:20:31.410000000 PM,0.06958,0.01001,1.000244
12/9/2020 1:20:31.425000000 PM,0.070312,0.008789,1.00293
12/9/2020 1:20:31.433000000 PM,0.068848,0.012939,1.002197
12/9/2020 1:20:31.444000000 PM,0.070557,0.008057,1.001465
12/9/2020 1:20:31.457000000 PM,0.067139,0.009766,1.004883
12/9/2020 1:20:31.468000000 PM,0.063965,0.010742,0.998535
12/9/2020 1:20:31.482000000 PM,0.069336,0.009521,1.000977
12/9/2020 1:20:31.490000000 PM,0.07251,0.009277,1.000488
12/9/2020 1:20:31.502000000 PM,0.072754,0.009277,1.009521
12/9/2020 1:20:31.514000000 PM,0.073975,0.005615,1.00293
12/9/2020 1:20:31.526000000 PM,0.067383,0.009521,0.997803
12/9/2020 1:20:31.534000000 PM,0.068359,0.011963,1.00708
12/9/2020 1:20:31.552000000 PM,0.07373,0.013428,1.001953
12/9/2020 1:20:31.560000000 PM,0.069092,0.011475,1.003174
12/9/2020 1:20:31.571000000 PM,0.072021,0.006836,1.009766
12/9/2020 1:20:31.587000000 PM,0.069824,0.012207,0.99707
12/9/2020 1:20:31.595000000 PM,0.071533,0.009766,0.998779
12/9/2020 1:20:31.605000000 PM,0.069092,0.009521,1.001709
12/9/2020 1:20:31.615000000 PM,0.067627,0.009033,0.998779
12/9/2020 1:20:31.625000000 PM,0.072021,0.01123,1.003174
12/9/2020 1:20:31.636000000 PM,0.069336,0.007324,1.00293
12/9/2020 1:20:31.646000000 PM,0.068359,0.015137,1.001953
12/9/2020 1:20:31.657000000 PM,0.072266,0.008301,1.00293
12/9/2020 1:20:31.669000000 PM,0.070557,0.007812,1.006592
12/9/2020 1:20:31.685000000 PM,0.069824,0.015625,1.010986
12/9/2020 1:20:31.693000000 PM,0.070801,0.011475,0.999268
12/9/2020 1:20:31.704000000 PM,0.069336,0.009277,1.000977
12/9/2020 1:20:31.715000000 PM,0.072266,0.006592,1.000244
12/9/2020 1:20:31.725000000 PM,0.072266,0.011963,1.000732
12/9/2020 1:20:31.735000000 PM,0.070557,0.007568,0.996582
12/9/2020 1:20:31.748000000 PM,0.071045,0.01001,1.002441
12/9/2020 1:20:31.760000000 PM,0.070312,0.009766,0.998291
12/9/2020 1:20:31.771000000 PM,0.070312,0.010742,0.999512
12/9/2020 1:20:31.781000000 PM,0.070557,0.013916,1.00293
12/9/2020 1:20:31.792000000 PM,0.069824,0.014893,1.003906
12/9/2020 1:20:31.807000000 PM,0.074463,0.005371,1.001221
12/9/2020 1:20:31.815000000 PM,0.071777,0.01001,0.999756
12/9/2020 1:20:31.830000000 PM,0.072266,0.009521,0.996094
12/9/2020 1:20:31.838000000 PM,0.070068,0.012207,0.996826
12/9/2020 1:20:31.848000000 PM,0.071777,0.009277,1
12/9/2020 1:20:31.858000000 PM,0.068604,0.009766,1.00708
12/9/2020 1:20:31.871000000 PM,0.067871,0.011475,1.004883
12/9/2020 1:20:31.881000000 PM,0.07251,0.010742,0.997559
12/9/2020 1:20:31.891000000 PM,0.065918,0.010986,1.003662
12/9/2020 1:20:31.903000000 PM,0.068848,0.010742,1.003662
12/9/2020 1:20:31.913000000 PM,0.071045,0.013184,0.998535
12/9/2020 1:20:31.923000000 PM,0.070312,0.012207,1.003662
12/9/2020 1:20:31.933000000 PM,0.075439,0.009277,0.997314
12/9/2020 1:20:31.945000000 PM,0.067383,0.010986,1.002686
12/9/2020 1:20:31.953000000 PM,0.070557,0.012939,1.005859
12/9/2020 1:20:31.965000000 PM,0.071289,0.008545,1.000244
12/9/2020 1:20:31.975000000 PM,0.071533,0.010254,1.002686
12/9/2020 1:20:31.986000000 PM,0.070068,0.009033,1.001465
12/9/2020 1:20:31.995000000 PM,0.069824,0.007568,1.000244
12/9/2020 1:20:32.012000000 PM,0.069336,0.012695,0.999023
12/9/2020 1:20:32.020000000 PM,0.067627,0.006836,1.000732
12/9/2020 1:20:32.031000000 PM,0.069092,0.009521,1.003418
12/9/2020 1:20:32.041000000 PM,0.071533,0.006104,0.99707
12/9/2020 1:20:32.052000000 PM,0.069824,0.011963,1.003418
12/9/2020 1:20:32.062000000 PM,0.071777,0.012695,1.005127
12/9/2020 1:20:32.074000000 PM,0.072266,0.010498,1.001221
12/9/2020 1:20:32.086000000 PM,0.065918,0.010254,0.997803
12/9/2020 1:20:32.096000000 PM,0.073242,0.008057,0.999512
12/9/2020 1:20:32.106000000 PM,0.068604,0.012451,0.999268
12/9/2020 1:20:32.119000000 PM,0.067383,0.009766,0.997803
12/9/2020 1:20:32.132000000 PM,0.068359,0.009277,0.994141
12/9/2020 1:20:32.140000000 PM,0.070801,0.01001,0.996338
12/9/2020 1:20:32.152000000 PM,0.070068,0.01001,1.003906
12/9/2020 1:20:32.163000000 PM,0.068848,0.008301,1.003906
12/9/2020 1:20:32.180000000 PM,0.070557,0.012207,0.997803
12/9/2020 1:20:32.188000000 PM,0.069336,0.011719,0.998047
12/9/2020 1:20:32.199000000 PM,0.069336,0.010742,1.000977
12/9/2020 1:20:32.214000000 PM,0.069824,0.007812,0.997803
12/9/2020 1:20:32.222000000 PM,0.066895,0.011963,1.00293
12/9/2020 1:20:32.233000000 PM,0.071289,0.01123,0.999023
12/9/2020 1:20:32.244000000 PM,0.069092,0.013428,1.00415
12/9/2020 1:20:32.260000000 PM,0.066895,0.009033,1.000244
12/9/2020 1:20:32.267000000 PM,0.070312,0.014648,0.999512
12/9/2020 1:20:32.275000000 PM,0.066162,0.009521,0.99292
12/9/2020 1:20:32.295000000 PM,0.070312,0.008789,0.999268
12/9/2020 1:20:32.302000000 PM,0.072754,0.006592,0.998779
12/9/2020 1:20:32.314000000 PM,0.067627,0.007324,0.997559
12/9/2020 1:20:32.324000000 PM,0.065674,0.011475,0.997803
12/9/2020 1:20:32.335000000 PM,0.074951,0.010742,1.004395
12/9/2020 1:20:32.345000000 PM,0.070557,0.010986,0.999512
12/9/2020 1:20:32.355000000 PM,0.070068,0.013672,1.001953
12/9/2020 1:20:32.366000000 PM,0.069336,0.013916,1.004639
12/9/2020 1:20:32.379000000 PM,0.075439,0.010742,1.005371
12/9/2020 1:20:32.390000000 PM,0.068604,0.010498,0.994629
12/9/2020 1:20:32.401000000 PM,0.06958,0.012939,1.002197
12/9/2020 1:20:32.411000000 PM,0.068604,0.006348,1.001709
12/9/2020 1:20:32.422000000 PM,0.069824,0.012451,0.996094
12/9/2020 1:20:32.432000000 PM,0.067139,0.008301,0.993652
12/9/2020 1:20:32.443000000 PM,0.072998,0.011475,1.003418
12/9/2020 1:20:32.453000000 PM,0.067871,0.007568,1.000977
12/9/2020 1:20:32.463000000 PM,0.070312,0.011719,1.006592
12/9/2020 1:20:32.476000000 PM,0.071533,0.009521,1.00293
12/9/2020 1:20:32.485000000 PM,0.067383,0.010742,1.006836
12/9/2020 1:20:32.500000000 PM,0.073242,0.012939,0.999268
12/9/2020 1:20:32.508000000 PM,0.06958,0.010498,1.000732
12/9/2020 1:20:32.521000000 PM,0.067139,0.010498,1.009033
12/9/2020 1:20:32.536000000 PM,0.068848,0.01123,1.009033
12/9/2020 1:20:32.544000000 PM,0.063232,0.010498,1.006592
12/9/2020 1:20:32.560000000 PM,0.070068,0.010498,1.005371
12/9/2020 1:20:32.568000000 PM,0.071777,0.010254,1.003418
12/9/2020 1:20:32.580000000 PM,0.070801,0.007324,1.002686
12/9/2020 1:20:32.590000000 PM,0.067871,0.007568,1.003906
12/9/2020 1:20:32.600000000 PM,0.068115,0.012695,0.998291
12/9/2020 1:20:32.610000000 PM,0.072998,0.012207,1.000732
12/9/2020 1:20:32.621000000 PM,0.073486,0.008301,1.006592
12/9/2020 1:20:32.633000000 PM,0.06958,0.009521,1.002686
12/9/2020 1:20:32.643000000 PM,0.071045,0.00708,1.003174
12/9/2020 1:20:32.653000000 PM,0.065918,0.009277,0.999756
12/9/2020 1:20:32.669000000 PM,0.071289,0.013184,1.001221
12/9/2020 1:20:32.676000000 PM,0.064209,0.01001,1.005371
12/9/2020 1:20:32.684000000 PM,0.071533,0.01001,1.001953
12/9/2020 1:20:32.701000000 PM,0.072021,0.010498,1.001221
12/9/2020 1:20:32.711000000 PM,0.068604,0.011963,0.996094
12/9/2020 1:20:32.723000000 PM,0.071777,0.009521,0.999756
12/9/2020 1:20:32.733000000 PM,0.069824,0.009033,1.008057
12/9/2020 1:20:32.742000000 PM,0.072998,0.008789,1.008301
12/9/2020 1:20:32.754000000 PM,0.075928,0.009033,1.006592
12/9/2020 1:20:32.764000000 PM,0.074951,0.015137,1.003174
12/9/2020 1:20:32.774000000 PM,0.070068,0.011475,0.997559
12/9/2020 1:20:32.785000000 PM,0.064453,0.010498,1.000244
12/9/2020 1:20:32.795000000 PM,0.071289,0.009277,1.001221
12/9/2020 1:20:32.805000000 PM,0.071289,0.008301,0.999512
12/9/2020 1:20:32.815000000 PM,0.070068,0.009766,0.993408
12/9/2020 1:20:32.826000000 PM,0.06958,0.012939,0.999268
12/9/2020 1:20:32.833000000 PM,0.06958,0.01001,1.000244
12/9/2020 1:20:32.852000000 PM,0.069092,0.008057,0.995361
12/9/2020 1:20:32.860000000 PM,0.067871,0.008545,0.996826
12/9/2020 1:20:32.871000000 PM,0.069336,0.011475,1.005615
12/9/2020 1:20:32.888000000 PM,0.070312,0.010986,0.998047
12/9/2020 1:20:32.896000000 PM,0.069824,0.011475,0.996094
12/9/2020 1:20:32.906000000 PM,0.069092,0.008057,1.000977
12/9/2020 1:20:32.919000000 PM,0.070312,0.010498,0.999268
12/9/2020 1:20:32.929000000 PM,0.067383,0.00708,0.995361
12/9/2020 1:20:32.939000000 PM,0.072754,0.011719,1.005127
12/9/2020 1:20:32.949000000 PM,0.07251,0.011475,1.005127
12/9/2020 1:20:32.959000000 PM,0.071777,0.011719,1.003906
12/9/2020 1:20:32.969000000 PM,0.073486,0.015869,0.998779
12/9/2020 1:20:32.979000000 PM,0.070068,0.010254,0.996094
12/9/2020 1:20:32.990000000 PM,0.072266,0.009766,1.001221
12/9/2020 1:20:33.000000000 PM,0.068359,0.013428,0.999023
12/9/2020 1:20:33.014000000 PM,0.068604,0.008545,1.003418
12/9/2020 1:20:33.030000000 PM,0.071045,0.009033,1.002686
12/9/2020 1:20:33.038000000 PM,0.069092,0.007812,0.998291
12/9/2020 1:20:33.048000000 PM,0.070557,0.010498,1.001221
12/9/2020 1:20:33.060000000 PM,0.071777,0.012207,1.001709
12/9/2020 1:20:33.070000000 PM,0.06665,0.011963,1.000244
12/9/2020 1:20:33.080000000 PM,0.071777,0.008545,0.996826
12/9/2020 1:20:33.092000000 PM,0.073486,0.010254,0.996094
12/9/2020 1:20:33.102000000 PM,0.073242,0.009521,1.007812
12/9/2020 1:20:33.113000000 PM,0.067139,0.012695,1.003418
12/9/2020 1:20:33.123000000 PM,0.072754,0.010254,1.001709
12/9/2020 1:20:33.133000000 PM,0.064941,0.010742,0.999756
12/9/2020 1:20:33.143000000 PM,0.071777,0.014404,1.000977
12/9/2020 1:20:33.153000000 PM,0.070068,0.009766,1.002197
12/9/2020 1:20:33.168000000 PM,0.07251,0.010986,1.001465
12/9/2020 1:20:33.176000000 PM,0.072754,0.01001,1.007324
12/9/2020 1:20:33.186000000 PM,0.070068,0.010742,0.998779
12/9/2020 1:20:33.198000000 PM,0.067871,0.008301,1.006836
12/9/2020 1:20:33.213000000 PM,0.073975,0.010254,0.993408
12/9/2020 1:20:33.221000000 PM,0.067139,0.010254,1.000488
12/9/2020 1:20:33.231000000 PM,0.07251,0.009521,0.998047
12/9/2020 1:20:33.241000000 PM,0.070557,0.006348,1.001221
12/9/2020 1:20:33.253000000 PM,0.06958,0.011475,1.002686
12/9/2020 1:20:33.264000000 PM,0.072266,0.012451,1.006348
12/9/2020 1:20:33.275000000 PM,0.072021,0.007812,1.003906
12/9/2020 1:20:33.287000000 PM,0.075195,0.013184,1.003662
12/9/2020 1:20:33.299000000 PM,0.070312,0.01416,0.998779
12/9/2020 1:20:33.310000000 PM,0.074463,0.013916,0.999756
12/9/2020 1:20:33.321000000 PM,0.072754,0.009521,1.000732
12/9/2020 1:20:33.332000000 PM,0.068604,0.008057,0.992188
12/9/2020 1:20:33.342000000 PM,0.069824,0.009766,0.999512
12/9/2020 1:20:33.353000000 PM,0.073486,0.006348,0.998047
12/9/2020 1:20:33.365000000 PM,0.069824,0.012695,0.994873
12/9/2020 1:20:33.377000000 PM,0.069824,0.006592,1.000977
12/9/2020 1:20:33.387000000 PM,0.072021,0.01001,0.999023
12/9/2020 1:20:33.399000000 PM,0.070801,0.009033,0.996338
12/9/2020 1:20:33.408000000 PM,0.074951,0.007812,1.004883
12/9/2020 1:20:33.420000000 PM,0.071777,0.008789,0.998535
12/9/2020 1:20:33.436000000 PM,0.071533,0.009033,1.006104
12/9/2020 1:20:33.443000000 PM,0.071777,0.010742,0.996582
12/9/2020 1:20:33.454000000 PM,0.072266,0.012695,1.002686
12/9/2020 1:20:33.465000000 PM,0.071289,0.010986,1.001709
12/9/2020 1:20:33.475000000 PM,0.068848,0.009766,0.997803
12/9/2020 1:20:33.487000000 PM,0.065674,0.010254,1.001221
12/9/2020 1:20:33.498000000 PM,0.067627,0.008545,1.00415
12/9/2020 1:20:33.515000000 PM,0.070557,0.008301,1.006104
12/9/2020 1:20:33.523000000 PM,0.070801,0.011475,1.000244
12/9/2020 1:20:33.534000000 PM,0.070312,0.010742,0.999512
12/9/2020 1:20:33.544000000 PM,0.070068,0.008301,0.998535
12/9/2020 1:20:33.554000000 PM,0.071289,0.006836,1.001953
12/9/2020 1:20:33.565000000 PM,0.06958,0.012451,0.998291
12/9/2020 1:20:33.574000000 PM,0.06958,0.010742,1.006104
12/9/2020 1:20:33.590000000 PM,0.070068,0.010254,1.000977
12/9/2020 1:20:33.598000000 PM,0.068604,0.009766,1.000488
12/9/2020 1:20:33.614000000 PM,0.06958,0.011475,0.994141
12/9/2020 1:20:33.622000000 PM,0.070557,0.009033,1.002686
12/9/2020 1:20:33.637000000 PM,0.071533,0.012451,0.997559
12/9/2020 1:20:33.645000000 PM,0.065674,0.008057,1.008057
12/9/2020 1:20:33.655000000 PM,0.069336,0.005615,1.002686
12/9/2020 1:20:33.664000000 PM,0.067871,0.007812,1.001221
12/9/2020 1:20:33.677000000 PM,0.067383,0.009766,1.005371
12/9/2020 1:20:33.683000000 PM,0.069824,0.011719,0.999023
12/9/2020 1:20:33.702000000 PM,0.068848,0.007324,0.995117
12/9/2020 1:20:33.712000000 PM,0.06958,0.012939,0.995117
12/9/2020 1:20:33.721000000 PM,0.067383,0.013916,1.000244
12/9/2020 1:20:33.731000000 PM,0.070068,0.011719,1.003418
12/9/2020 1:20:33.741000000 PM,0.071777,0.009766,0.996582
12/9/2020 1:20:33.752000000 PM,0.068115,0.00708,1.002441
12/9/2020 1:20:33.765000000 PM,0.071533,0.011475,1.004639
12/9/2020 1:20:33.777000000 PM,0.07373,0.013916,0.999268
12/9/2020 1:20:33.786000000 PM,0.069336,0.010986,0.996582
12/9/2020 1:20:33.802000000 PM,0.067627,0.010254,0.999268
12/9/2020 1:20:33.810000000 PM,0.072021,0.007812,1.001465
12/9/2020 1:20:33.822000000 PM,0.072021,0.005127,1.000244
12/9/2020 1:20:33.831000000 PM,0.067871,0.011963,0.996826
12/9/2020 1:20:33.847000000 PM,0.069336,0.013672,1.00293
12/9/2020 1:20:33.855000000 PM,0.070068,0.010986,1.001953
12/9/2020 1:20:33.864000000 PM,0.073242,0.008789,0.999023
12/9/2020 1:20:33.880000000 PM,0.07251,0.008545,0.999268
12/9/2020 1:20:33.887000000 PM,0.070312,0.011963,1.001465
12/9/2020 1:20:33.900000000 PM,0.070557,0.009766,1.003418
12/9/2020 1:20:33.910000000 PM,0.067627,0.010254,1.002686
12/9/2020 1:20:33.925000000 PM,0.073975,0.01123,0.998047
12/9/2020 1:20:33.933000000 PM,0.072266,0.010254,0.993408
12/9/2020 1:20:33.946000000 PM,0.070557,0.011475,1.001221
12/9/2020 1:20:33.962000000 PM,0.070068,0.008301,1.005371
12/9/2020 1:20:33.970000000 PM,0.068604,0.011719,1.001953
12/9/2020 1:20:33.982000000 PM,0.071777,0.01123,1.005371
12/9/2020 1:20:33.998000000 PM,0.065918,0.010498,0.999512
12/9/2020 1:20:34.006000000 PM,0.067627,0.010742,0.998535
12/9/2020 1:20:34.019000000 PM,0.071533,0.009033,0.998291
12/9/2020 1:20:34.030000000 PM,0.071045,0.008545,1.008057
12/9/2020 1:20:34.045000000 PM,0.072266,0.013672,0.999268
12/9/2020 1:20:34.053000000 PM,0.071289,0.008789,0.996094
12/9/2020 1:20:34.059000000 PM,0.077148,0.013184,0.989746
12/9/2020 1:20:34.076000000 PM,0.06958,0.010986,0.999512
12/9/2020 1:20:34.087000000 PM,0.072754,0.013184,0.998535
12/9/2020 1:20:34.099000000 PM,0.068359,0.012695,1.001221
12/9/2020 1:20:34.107000000 PM,0.072754,0.008789,1.004395
12/9/2020 1:20:34.121000000 PM,0.071045,0.009521,0.999268
12/9/2020 1:20:34.129000000 PM,0.070801,0.008057,0.996826
12/9/2020 1:20:34.139000000 PM,0.06665,0.009766,0.999512
12/9/2020 1:20:34.151000000 PM,0.070557,0.009033,0.996582
12/9/2020 1:20:34.164000000 PM,0.072754,0.01123,1.00293
12/9/2020 1:20:34.173000000 PM,0.069092,0.012207,1.000732
12/9/2020 1:20:34.188000000 PM,0.068359,0.009521,1
12/9/2020 1:20:34.196000000 PM,0.070801,0.01123,1.000977
12/9/2020 1:20:34.205000000 PM,0.073486,0.009766,1.006592
12/9/2020 1:20:34.216000000 PM,0.069824,0.010742,1.000977
12/9/2020 1:20:34.226000000 PM,0.070801,0.010254,1.003174
12/9/2020 1:20:34.236000000 PM,0.072998,0.01123,1.002686
12/9/2020 1:20:34.251000000 PM,0.067383,0.014404,0.998779
12/9/2020 1:20:34.259000000 PM,0.068115,0.013428,1.00293
12/9/2020 1:20:34.270000000 PM,0.072266,0.011719,1.006104
12/9/2020 1:20:34.279000000 PM,0.070312,0.012939,0.999512
12/9/2020 1:20:34.291000000 PM,0.071289,0.011719,0.996094
12/9/2020 1:20:34.297000000 PM,0.071533,0.010986,0.996094
12/9/2020 1:20:34.303000000 PM,0.068115,0.008789,1.005371
12/9/2020 1:20:34.316000000 PM,0.070801,0.010254,0.996582
12/9/2020 1:20:34.330000000 PM,0.06665,0.009766,1.005371
12/9/2020 1:20:34.348000000 PM,0.070801,0.010742,0.998047
12/9/2020 1:20:34.356000000 PM,0.069336,0.012451,1.008545
12/9/2020 1:20:34.368000000 PM,0.071777,0.009277,1.004395
12/9/2020 1:20:34.378000000 PM,0.069336,0.01123,1.003662
12/9/2020 1:20:34.394000000 PM,0.068115,0.010986,1.001465
12/9/2020 1:20:34.402000000 PM,0.068604,0.008545,0.999268
12/9/2020 1:20:34.413000000 PM,0.068359,0.014648,0.998535
12/9/2020 1:20:34.428000000 PM,0.07251,0.011719,1.000732
12/9/2020 1:20:34.439000000 PM,0.066895,0.01001,1.003662
12/9/2020 1:20:34.454000000 PM,0.068359,0.009766,0.994629
12/9/2020 1:20:34.461000000 PM,0.070312,0.010986,0.996338
12/9/2020 1:20:34.472000000 PM,0.070312,0.005859,0.998291
12/9/2020 1:20:34.482000000 PM,0.067383,0.008545,0.994385
12/9/2020 1:20:34.494000000 PM,0.068848,0.012207,1.002197
12/9/2020 1:20:34.516000000 PM,0.065918,0.014893,1.001221
12/9/2020 1:20:34.525000000 PM,0.065918,0.010254,0.998047
12/9/2020 1:20:34.537000000 PM,0.071777,0.011719,1.000488
12/9/2020 1:20:34.548000000 PM,0.066895,0.012207,1.003906
12/9/2020 1:20:34.558000000 PM,0.072021,0.008301,1.001709
12/9/2020 1:20:34.565000000 PM,0.070801,0.008545,1.000244
12/9/2020 1:20:34.586000000 PM,0.068359,0.010498,1.007324
12/9/2020 1:20:34.593000000 PM,0.066895,0.009033,1
12/9/2020 1:20:34.605000000 PM,0.071045,0.006348,0.999512
12/9/2020 1:20:34.618000000 PM,0.069336,0.013672,0.994873
12/9/2020 1:20:34.630000000 PM,0.072266,0.011475,0.996826
12/9/2020 1:20:34.638000000 PM,0.068359,0.009521,1.003174
12/9/2020 1:20:34.653000000 PM,0.071533,0.011475,1.004639
12/9/2020 1:20:34.661000000 PM,0.066162,0.013184,0.998047
12/9/2020 1:20:34.672000000 PM,0.071045,0.008789,0.999023
12/9/2020 1:20:34.683000000 PM,0.067383,0.010742,0.993896
12/9/2020 1:20:34.693000000 PM,0.071045,0.012207,0.989014
12/9/2020 1:20:34.703000000 PM,0.070068,0.008301,0.993408
12/9/2020 1:20:34.712000000 PM,0.070068,0.013184,1.003418
12/9/2020 1:20:34.722000000 PM,0.073242,0.011719,1.001709
12/9/2020 1:20:34.733000000 PM,0.071533,0.009277,1.009521
12/9/2020 1:20:34.742000000 PM,0.072754,0.011475,1.006592
12/9/2020 1:20:34.769000000 PM,0.065674,0.010498,1.003906
12/9/2020 1:20:34.777000000 PM,0.067871,0.005371,0.999512
12/9/2020 1:20:34.786000000 PM,0.067627,0.010986,1
12/9/2020 1:20:34.798000000 PM,0.071045,0.007812,0.995117
12/9/2020 1:20:34.805000000 PM,0.072266,0.008545,0.998779
12/9/2020 1:20:34.821000000 PM,0.067139,0.01001,1.008301
12/9/2020 1:20:34.836000000 PM,0.068115,0.009521,0.994141
12/9/2020 1:20:34.844000000 PM,0.068848,0.011475,1.00415
12/9/2020 1:20:34.860000000 PM,0.067383,0.009766,1.004883
12/9/2020 1:20:34.868000000 PM,0.06958,0.010254,0.998535
12/9/2020 1:20:34.878000000 PM,0.070312,0.010254,1.002441
12/9/2020 1:20:34.888000000 PM,0.070801,0.012207,1.001465
12/9/2020 1:20:34.899000000 PM,0.071045,0.012451,1.002441
12/9/2020 1:20:34.908000000 PM,0.070801,0.010498,0.999268
12/9/2020 1:20:34.919000000 PM,0.072266,0.01001,0.995361
12/9/2020 1:20:34.929000000 PM,0.070801,0.011475,1.001953
12/9/2020 1:20:34.942000000 PM,0.070312,0.009277,1.00415
12/9/2020 1:20:34.957000000 PM,0.071289,0.014893,1.005615
12/9/2020 1:20:34.965000000 PM,0.072266,0.01123,0.996338
12/9/2020 1:20:34.978000000 PM,0.071777,0.010498,1.001709
12/9/2020 1:20:34.988000000 PM,0.068848,0.009277,1.000732
12/9/2020 1:20:34.998000000 PM,0.070312,0.008301,1.000244
12/9/2020 1:20:35.009000000 PM,0.075439,0.019775,0.996582
12/9/2020 1:20:35.025000000 PM,0.068604,0.019043,1.000488
12/9/2020 1:20:35.033000000 PM,0.071777,0.010742,1.000244
12/9/2020 1:20:35.045000000 PM,0.070312,0.008057,1.001709
12/9/2020 1:20:35.057000000 PM,0.06958,0.01001,0.999268
12/9/2020 1:20:35.067000000 PM,0.066895,0.010742,1.004639
12/9/2020 1:20:35.078000000 PM,0.071045,0.009521,1.002197
12/9/2020 1:20:35.089000000 PM,0.06958,0.008301,0.998535
12/9/2020 1:20:35.099000000 PM,0.068604,0.010498,1.000977
12/9/2020 1:20:35.109000000 PM,0.071533,0.009277,1.000732
12/9/2020 1:20:35.119000000 PM,0.069092,0.01123,1.002197
12/9/2020 1:20:35.130000000 PM,0.072021,0.01123,0.994873
12/9/2020 1:20:35.141000000 PM,0.070801,0.007324,0.997559
12/9/2020 1:20:35.157000000 PM,0.067139,0.012207,0.989258
12/9/2020 1:20:35.164000000 PM,0.068848,0.010254,1.003418
12/9/2020 1:20:35.176000000 PM,0.070312,0.008789,1.012207
12/9/2020 1:20:35.187000000 PM,0.070068,0.009033,1.005371
12/9/2020 1:20:35.199000000 PM,0.06958,0.008545,0.997803
12/9/2020 1:20:35.210000000 PM,0.071289,0.012451,1.004883
12/9/2020 1:20:35.220000000 PM,0.071777,0.008789,1
12/9/2020 1:20:35.230000000 PM,0.06958,0.014404,0.995605
12/9/2020 1:20:35.242000000 PM,0.070801,0.011475,1.006104
12/9/2020 1:20:35.250000000 PM,0.069336,0.010986,0.995117
12/9/2020 1:20:35.264000000 PM,0.070068,0.015625,1.003906
12/9/2020 1:20:35.276000000 PM,0.071289,0.013184,0.998779
12/9/2020 1:20:35.286000000 PM,0.069824,0.013428,1.000977
12/9/2020 1:20:35.301000000 PM,0.064453,0.010742,1.005127
12/9/2020 1:20:35.309000000 PM,0.069824,0.009277,0.99707
12/9/2020 1:20:35.321000000 PM,0.071289,0.009277,0.994629
12/9/2020 1:20:35.330000000 PM,0.068604,0.008545,1.001709
12/9/2020 1:20:35.344000000 PM,0.067871,0.009277,0.996338
12/9/2020 1:20:35.353000000 PM,0.067627,0.010986,1.003174
12/9/2020 1:20:35.363000000 PM,0.071533,0.016602,0.998535
12/9/2020 1:20:35.373000000 PM,0.070312,0.012207,0.998047
12/9/2020 1:20:35.384000000 PM,0.071045,0.008057,1.003906
12/9/2020 1:20:35.396000000 PM,0.071289,0.008789,1.000488
12/9/2020 1:20:35.406000000 PM,0.071289,0.00708,0.997314
12/9/2020 1:20:35.417000000 PM,0.067627,0.007568,1.000244
12/9/2020 1:20:35.433000000 PM,0.070801,0.011719,0.998291
12/9/2020 1:20:35.441000000 PM,0.072754,0.01123,0.998047
12/9/2020 1:20:35.453000000 PM,0.070312,0.007568,1.003174
12/9/2020 1:20:35.464000000 PM,0.073242,0.011963,0.999023
12/9/2020 1:20:35.474000000 PM,0.06543,0.009033,0.999756
12/9/2020 1:20:35.488000000 PM,0.07251,0.008545,1.000244
12/9/2020 1:20:35.496000000 PM,0.067871,0.011719,0.999756
12/9/2020 1:20:35.508000000 PM,0.068359,0.006348,1.005859
12/9/2020 1:20:35.520000000 PM,0.071533,0.011963,1.000244
12/9/2020 1:20:35.532000000 PM,0.066895,0.01123,1.00708
12/9/2020 1:20:35.548000000 PM,0.068359,0.00708,1.005859
12/9/2020 1:20:35.556000000 PM,0.072021,0.009766,1.001953
12/9/2020 1:20:35.568000000 PM,0.06958,0.010986,0.993896
12/9/2020 1:20:35.579000000 PM,0.072266,0.013184,1.002441
12/9/2020 1:20:35.590000000 PM,0.070312,0.009033,0.997314
12/9/2020 1:20:35.601000000 PM,0.066895,0.010254,0.991943
12/9/2020 1:20:35.610000000 PM,0.06543,0.01001,1.002197
12/9/2020 1:20:35.621000000 PM,0.069824,0.009766,1.006348
12/9/2020 1:20:35.630000000 PM,0.069092,0.00708,0.995117
12/9/2020 1:20:35.649000000 PM,0.074707,0.011963,1
12/9/2020 1:20:35.657000000 PM,0.070557,0.01123,0.998779
12/9/2020 1:20:35.668000000 PM,0.06958,0.01001,0.99585
12/9/2020 1:20:35.678000000 PM,0.069092,0.012451,0.999512
12/9/2020 1:20:35.688000000 PM,0.070557,0.005615,0.998779
12/9/2020 1:20:35.699000000 PM,0.063721,0.008057,1.000977
12/9/2020 1:20:35.709000000 PM,0.068604,0.009766,1.000977
12/9/2020 1:20:35.720000000 PM,0.068359,0.01123,1.006104
12/9/2020 1:20:35.732000000 PM,0.067871,0.009277,0.99585
12/9/2020 1:20:35.742000000 PM,0.068848,0.01416,1.002197
12/9/2020 1:20:35.753000000 PM,0.068115,0.01001,1
12/9/2020 1:20:35.769000000 PM,0.068115,0.01123,1.002441
12/9/2020 1:20:35.777000000 PM,0.068359,0.005371,1.000732
12/9/2020 1:20:35.788000000 PM,0.070801,0.012939,1.001953
12/9/2020 1:20:35.798000000 PM,0.069092,0.006592,1.000488
12/9/2020 1:20:35.809000000 PM,0.068115,0.012695,1.002441
12/9/2020 1:20:35.820000000 PM,0.069092,0.009277,0.998535
12/9/2020 1:20:35.829000000 PM,0.070312,0.007812,0.999268
12/9/2020 1:20:35.841000000 PM,0.069092,0.009521,0.996826
12/9/2020 1:20:35.851000000 PM,0.07251,0.005127,1.009277
12/9/2020 1:20:35.863000000 PM,0.071533,0.007568,0.996826
12/9/2020 1:20:35.873000000 PM,0.065186,0.012939,1.000488
12/9/2020 1:20:35.884000000 PM,0.072021,0.008545,1
12/9/2020 1:20:35.901000000 PM,0.067139,0.004639,1.003662
12/9/2020 1:20:35.909000000 PM,0.07251,0.009766,1.001953
12/9/2020 1:20:35.918000000 PM,0.068359,0.013428,1.003906
12/9/2020 1:20:35.934000000 PM,0.068359,0.014893,1.000244
12/9/2020 1:20:35.942000000 PM,0.069336,0.009033,0.998291
12/9/2020 1:20:35.952000000 PM,0.070801,0.011963,1.003906
12/9/2020 1:20:35.963000000 PM,0.070068,0.01001,1.001221
12/9/2020 1:20:35.974000000 PM,0.067139,0.013916,1.002197
12/9/2020 1:20:35.983000000 PM,0.069336,0.007568,1.01001
12/9/2020 1:20:35.994000000 PM,0.067627,0.010742,0.997314
12/9/2020 1:20:36.006000000 PM,0.070557,0.015381,1.006348
12/9/2020 1:20:36.016000000 PM,0.068848,0.012695,0.991211
12/9/2020 1:20:36.026000000 PM,0.072021,0.006348,1.004883
12/9/2020 1:20:36.037000000 PM,0.068604,0.013916,1.000732
12/9/2020 1:20:36.048000000 PM,0.067139,0.010498,1.006104
12/9/2020 1:20:36.058000000 PM,0.069336,0.010986,0.999268
12/9/2020 1:20:36.069000000 PM,0.068115,0.010254,0.996582
12/9/2020 1:20:36.079000000 PM,0.072021,0.008789,1.003662
12/9/2020 1:20:36.089000000 PM,0.067627,0.011719,1.005371
12/9/2020 1:20:36.101000000 PM,0.069336,0.008301,1.000488
12/9/2020 1:20:36.113000000 PM,0.067627,0.012451,1.001953
12/9/2020 1:20:36.123000000 PM,0.069336,0.010254,0.998779
12/9/2020 1:20:36.134000000 PM,0.070557,0.012451,1.000977
12/9/2020 1:20:36.146000000 PM,0.068604,0.01001,1.002686
12/9/2020 1:20:36.157000000 PM,0.071045,0.013428,1.005615
12/9/2020 1:20:36.165000000 PM,0.071045,0.009521,1.006836
12/9/2020 1:20:36.180000000 PM,0.069092,0.011719,1
12/9/2020 1:20:36.190000000 PM,0.068359,0.012695,1.00415
12/9/2020 1:20:36.200000000 PM,0.070312,0.008057,0.999756
12/9/2020 1:20:36.211000000 PM,0.071289,0.012451,1.005371
12/9/2020 1:20:36.221000000 PM,0.068604,0.012207,1.00415
12/9/2020 1:20:36.236000000 PM,0.066895,0.01123,1.00415
12/9/2020 1:20:36.244000000 PM,0.072266,0.008301,1.007324
12/9/2020 1:20:36.256000000 PM,0.071045,0.012451,1.006836
12/9/2020 1:20:36.269000000 PM,0.071777,0.006592,0.996582
12/9/2020 1:20:36.281000000 PM,0.073242,0.009521,0.998047
12/9/2020 1:20:36.291000000 PM,0.067383,0.008789,1.004395
12/9/2020 1:20:36.302000000 PM,0.066406,0.010254,1.000732
12/9/2020 1:20:36.317000000 PM,0.072266,0.012207,1.003174
12/9/2020 1:20:36.325000000 PM,0.06958,0.010254,0.996094
12/9/2020 1:20:36.337000000 PM,0.071045,0.008789,1.002197
12/9/2020 1:20:36.347000000 PM,0.06543,0.007812,1.005615
12/9/2020 1:20:36.358000000 PM,0.068848,0.008545,1.002197
12/9/2020 1:20:36.370000000 PM,0.070312,0.011475,0.997314
12/9/2020 1:20:36.380000000 PM,0.070068,0.007568,1.001221
12/9/2020 1:20:36.392000000 PM,0.068604,0.01416,1.004639
12/9/2020 1:20:36.402000000 PM,0.072754,0.015381,1.005859
12/9/2020 1:20:36.412000000 PM,0.071533,0.011963,1.001221
12/9/2020 1:20:36.422000000 PM,0.069336,0.012939,0.999512
12/9/2020 1:20:36.432000000 PM,0.067139,0.009033,0.996094
12/9/2020 1:20:36.442000000 PM,0.068848,0.01416,0.999756
12/9/2020 1:20:36.452000000 PM,0.070557,0.011963,0.995361
12/9/2020 1:20:36.462000000 PM,0.072754,0.009277,1.001221
12/9/2020 1:20:36.475000000 PM,0.071289,0.009766,1.001953
12/9/2020 1:20:36.486000000 PM,0.069092,0.010986,1.000977
12/9/2020 1:20:36.496000000 PM,0.070068,0.011475,1.002686
12/9/2020 1:20:36.508000000 PM,0.067383,0.01416,1.004395
12/9/2020 1:20:36.520000000 PM,0.068604,0.009521,1.002441
12/9/2020 1:20:36.530000000 PM,0.070068,0.006592,1.006592
12/9/2020 1:20:36.541000000 PM,0.071289,0.017822,1.000977
12/9/2020 1:20:36.550000000 PM,0.069092,0.01001,1.003906
12/9/2020 1:20:36.562000000 PM,0.073975,0.006836,1.002197
12/9/2020 1:20:36.572000000 PM,0.072021,0.005859,0.996826
12/9/2020 1:20:36.583000000 PM,0.070801,0.009766,0.998047
12/9/2020 1:20:36.593000000 PM,0.068359,0.012207,1.000488
12/9/2020 1:20:36.603000000 PM,0.068604,0.01001,0.992676
12/9/2020 1:20:36.614000000 PM,0.070068,0.006104,0.993652
12/9/2020 1:20:36.624000000 PM,0.068359,0.008057,1.003418
